Sample	2mm tape 2
date	07/01/2025
	
Temperature (K)	77.00
Angle (deg.)	0.000000
field / T	0.020000
	
		
Approx. trace time (s)	60.0	
		
Current / A	V1  -sample/ uV	time/s
0.001612	-1.575570	0.000000
0.001522	-1.637618	0.047000
0.001516	-1.648187	0.093000
0.001403	-1.575340	0.139000
0.002047	-1.644433	0.185000
0.094097	-1.670469	0.552000
0.125343	-1.672505	0.920000
0.155947	-1.712581	0.966000
0.187152	-1.699885	1.012000
0.217607	-1.600444	1.057000
0.249045	-1.617169	1.103000
0.278660	-1.663518	1.150000
0.308779	-1.662498	1.195000
0.339977	-1.581915	1.242000
0.443663	-1.645325	1.289000
0.474937	-1.590829	1.443000
0.504925	-1.652276	1.489000
0.536272	-1.697407	1.535000
0.566266	-1.660622	1.582000
0.676977	-1.616275	1.627000
0.708250	-1.633861	1.793000
0.738120	-1.657978	1.838000
0.769557	-1.704643	1.885000
0.799474	-1.699576	1.932000
0.831077	-1.617977	1.978000
0.862203	-1.660653	2.025000
0.893158	-1.712549	2.071000
0.924343	-1.701811	2.117000
0.955572	-1.606054	2.164000
0.986589	-1.632529	2.210000
1.017492	-1.667541	2.256000
1.047687	-1.646309	2.303000
1.077603	-1.540932	2.348000
1.181415	-1.526955	2.395000
1.211844	-1.449558	2.550000
1.242812	-1.488770	2.596000
1.273784	-1.511410	2.641000
1.304671	-1.458089	2.687000
1.410472	-1.396134	2.733000
1.440375	-1.400536	2.893000
1.471206	-1.416963	2.938000
1.502233	-1.482442	2.985000
1.533862	-1.499597	3.031000
1.564882	-1.415776	3.078000
1.595935	-1.432919	3.124000
1.627169	-1.494969	3.171000
1.658302	-1.509379	3.218000
1.688929	-1.429922	3.263000
1.720087	-1.447129	3.310000
1.750805	-1.506047	3.357000
1.781253	-1.515221	3.403000
1.812845	-1.442189	3.449000
1.915840	-1.590281	3.496000
1.946939	-1.552272	3.650000
1.978051	-1.635477	3.696000
2.008287	-1.709647	3.743000
2.038590	-1.707463	3.789000
2.142722	-1.662093	3.835000
2.174863	-1.748781	3.993000
2.205518	-1.737990	4.039000
2.237210	-1.794871	4.085000
2.267685	-1.803342	4.132000
2.299521	-1.693069	4.178000
2.330064	-1.630213	4.225000
2.360765	-1.638697	4.271000
2.391401	-1.611131	4.317000
2.421395	-1.491659	4.364000
2.452543	-1.450218	4.410000
2.483647	-1.476674	4.456000
2.515332	-1.461551	4.503000
2.546429	-1.348418	4.550000
2.650416	-1.274940	4.596000
2.680327	-1.170581	4.751000
2.710684	-1.197184	4.797000
2.741874	-1.234840	4.843000
2.772550	-1.216782	4.890000
2.877654	-1.162339	4.936000
2.908368	-1.254931	5.093000
2.940383	-1.248366	5.139000
2.970040	-1.321335	5.186000
3.001893	-1.357170	5.231000
3.031590	-1.297608	5.278000
3.062320	-1.292682	5.324000
3.092315	-1.369309	5.370000
3.124551	-1.409320	5.417000
3.155313	-1.347911	5.463000
3.186868	-1.349257	5.509000
3.217284	-1.422157	5.556000
3.248605	-1.453349	5.602000
3.279074	-1.380178	5.648000
3.753149	-1.458019	5.694000
3.783484	-1.346305	6.405000
3.815342	-1.391267	6.452000
3.845990	-1.433792	6.498000
3.877513	-1.414335	6.544000
3.907427	-1.351087	6.591000
3.938751	-1.408116	6.637000
3.969163	-1.458120	6.684000
4.000195	-1.435370	6.730000
4.107269	-1.475945	6.776000
4.138108	-1.400916	6.937000
4.169360	-1.401660	6.984000
4.200857	-1.467034	7.029000
4.231826	-1.492593	7.077000
4.345299	-1.307225	7.123000
4.374994	-1.474445	7.293000
4.406598	-1.438088	7.339000
4.437268	-1.507203	7.386000
4.468781	-1.547520	7.432000
4.499203	-1.496609	7.479000
4.530931	-1.460404	7.525000
4.561940	-1.517443	7.571000
4.593216	-1.532429	7.618000
4.622779	-1.446728	7.663000
4.653953	-1.382447	7.709000
4.684321	-1.435913	7.756000
4.715385	-1.474666	7.803000
4.746405	-1.414102	7.849000
4.850379	-1.462923	7.895000
4.881519	-1.390016	8.050000
4.912119	-1.416143	8.095000
4.942362	-1.481422	8.142000
4.971972	-1.498562	8.188000
5.078250	-1.428083	8.234000
5.108868	-1.493320	8.393000
5.140008	-1.427630	8.439000
5.171564	-1.480045	8.486000
5.202394	-1.514245	8.532000
5.233834	-1.470112	8.579000
5.264610	-1.391246	8.624000
5.294718	-1.435891	8.670000
5.324268	-1.472635	8.717000
5.355513	-1.437291	8.763000
5.386242	-1.365275	8.809000
5.417648	-1.401903	8.855000
5.447761	-1.420135	8.901000
5.479351	-1.366305	8.947000
5.581443	-1.344981	8.993000
5.612165	-1.271814	9.148000
5.643250	-1.237808	9.193000
5.674281	-1.270513	9.241000
5.704767	-1.268858	9.286000
5.811433	-1.183323	9.333000
5.842518	-1.269611	9.493000
5.874450	-1.213554	9.539000
5.905100	-1.276470	9.586000
5.935276	-1.331874	9.631000
5.966395	-1.317429	9.678000
5.997645	-1.251042	9.725000
6.027859	-1.297159	9.771000
6.058856	-1.331020	9.818000
6.090477	-1.286621	9.865000
6.121417	-1.210576	9.911000
6.152456	-1.256788	9.957000
6.183730	-1.295932	10.004000
6.215445	-1.266594	10.050000
6.316712	-1.305654	10.096000
6.348220	-1.235249	10.251000
6.378593	-1.211761	10.297000
6.409320	-1.274477	10.344000
6.440800	-1.304659	10.390000
6.545651	-1.241258	10.436000
6.576805	-1.313463	10.592000
6.606803	-1.230216	10.639000
6.637632	-1.254038	10.685000
6.668061	-1.304532	10.732000
6.699288	-1.299571	10.778000
6.730648	-1.224626	10.824000
6.761198	-1.265219	10.871000
6.792589	-1.322361	10.917000
6.823666	-1.317187	10.963000
6.854691	-1.240869	11.009000
6.885017	-1.271604	11.056000
6.915888	-1.308818	11.102000
6.946263	-1.295201	11.148000
7.421202	-1.308022	11.195000
7.452392	-1.287005	11.905000
7.482566	-1.248270	11.952000
7.513732	-1.308450	11.998000
7.543790	-1.336412	12.044000
7.575231	-1.268973	12.091000
7.605462	-1.224816	12.138000
7.637547	-1.277341	12.184000
7.667983	-1.295920	12.230000
7.775211	-1.228455	12.277000
7.806543	-1.213185	12.437000
7.836769	-1.117186	12.484000
7.868763	-1.139763	12.530000
7.899290	-1.179357	12.576000
8.012021	-1.168798	12.622000
8.043356	-1.187483	12.793000
8.072989	-1.118424	12.838000
8.105052	-1.123582	12.884000
8.136092	-1.199251	12.931000
8.167337	-1.239109	12.977000
8.197045	-1.186846	13.024000
8.228653	-1.211856	13.070000
8.258920	-1.295984	13.116000
8.289601	-1.330402	13.163000
8.320364	-1.272935	13.209000
8.351901	-1.298061	13.255000
8.382534	-1.366485	13.301000
8.414067	-1.383646	13.348000
8.517145	-1.381470	13.394000
8.546094	-1.347974	13.549000
8.578125	-1.278702	13.595000
8.608710	-1.328127	13.641000
8.640175	-1.366326	13.688000
8.746342	-1.327789	13.734000
8.776718	-1.342205	13.893000
8.809108	-1.264797	13.939000
8.839579	-1.259463	13.984000
8.870117	-1.312921	14.031000
8.899555	-1.318128	14.078000
8.930854	-1.229176	14.124000
8.962005	-1.227048	14.171000
8.993196	-1.277496	14.218000
9.024085	-1.283568	14.264000
9.055749	-1.199384	14.310000
9.086465	-1.211202	14.357000
9.118019	-1.257331	14.403000
9.148857	-1.255750	14.450000
9.250617	-1.225149	14.496000
9.282684	-1.193797	14.651000
9.313420	-1.116285	14.697000
9.344834	-1.158166	14.744000
9.375199	-1.185941	14.791000
9.479962	-1.141157	14.837000
9.511065	-1.128469	14.993000
9.542135	-1.045469	15.040000
9.572690	-0.999704	15.086000
9.602432	-1.032205	15.133000
9.633710	-1.050188	15.179000
9.664682	-0.984846	15.225000
9.696395	-0.976237	15.272000
9.726464	-1.029000	15.317000
9.758401	-1.032247	15.364000
9.789487	-0.937624	15.410000
9.820933	-0.919029	15.457000
9.849843	-0.981546	15.503000
9.881332	-1.011919	15.550000
9.984888	-0.976849	15.596000
10.015638	-0.930573	15.750000
10.047217	-0.840650	15.797000
10.077755	-0.891147	15.844000
10.109887	-0.955772	15.890000
10.212664	-0.959557	15.936000
10.243258	-1.052981	16.093000
10.274821	-1.000127	16.140000
10.305880	-0.977593	16.186000
10.336763	-1.042872	16.233000
10.368104	-1.072880	16.279000
10.399150	-1.006024	16.325000
10.429972	-0.969068	16.372000
10.460993	-1.023168	16.417000
10.492249	-1.052236	16.464000
10.522707	-0.973882	16.511000
10.552843	-0.927343	16.557000
10.583772	-0.977098	16.604000
10.614983	-1.009734	16.650000
11.088259	-1.161270	16.696000
11.118574	-1.233310	17.405000
11.149830	-1.150501	17.452000
11.180730	-1.186227	17.498000
11.211760	-1.226233	17.545000
11.242379	-1.193052	17.591000
11.273602	-1.104001	17.637000
11.305370	-1.130304	17.683000
11.336537	-1.153816	17.730000
11.443343	-1.082212	17.775000
11.474388	-1.099219	17.937000
11.504314	-1.018655	17.983000
11.535046	-0.993703	18.030000
11.566256	-1.054991	18.076000
11.680789	-1.083453	18.122000
11.711783	-1.108625	18.293000
11.742768	-1.064059	18.340000
11.773685	-1.018623	18.386000
11.804907	-1.077556	18.433000
11.835173	-1.113726	18.479000
11.864926	-1.055662	18.526000
11.896547	-1.013809	18.572000
11.927780	-1.062440	18.618000
11.958559	-1.081067	18.664000
11.988916	-1.004435	18.710000
12.020496	-0.959252	18.756000
12.050810	-1.006404	18.802000
12.082194	-1.026361	18.848000
12.184132	-0.993639	18.895000
12.215263	-0.993053	19.049000
12.246212	-0.909939	19.095000
12.277220	-0.928319	19.141000
12.308154	-0.967976	19.188000
12.414290	-0.953839	19.234000
12.445332	-0.964845	19.393000
12.474468	-0.906302	19.439000
12.505871	-0.869635	19.485000
12.536948	-0.934215	19.532000
12.568088	-0.974922	19.578000
12.599226	-0.919778	19.624000
12.630439	-0.878505	19.671000
12.660971	-0.937255	19.717000
12.691451	-0.972695	19.763000
12.723185	-0.915677	19.809000
12.753561	-0.874174	19.855000
12.784185	-0.930034	19.902000
12.814279	-0.950604	19.949000
12.919084	-0.873798	19.995000
12.949300	-0.872291	20.150000
12.980959	-0.785286	20.196000
13.011962	-0.794618	20.242000
13.043224	-0.837106	20.288000
13.146806	-0.835459	20.335000
13.176311	-0.815057	20.493000
13.208077	-0.771693	20.539000
13.238334	-0.708003	20.584000
13.270151	-0.753272	20.631000
13.300835	-0.770434	20.678000
13.332725	-0.697540	20.724000
13.363616	-0.620182	20.770000
13.394836	-0.650169	20.817000
13.424650	-0.664399	20.864000
13.454922	-0.590513	20.910000
13.485375	-0.531948	20.955000
13.516246	-0.572926	21.001000
13.547098	-0.591991	21.046000
13.649822	-0.524897	21.092000
13.681858	-0.523255	21.248000
13.711724	-0.433052	21.295000
13.743153	-0.432989	21.341000
13.773381	-0.486607	21.387000
13.880190	-0.501628	21.433000
13.910911	-0.451636	21.593000
13.942185	-0.398666	21.639000
13.973490	-0.333454	21.685000
14.003751	-0.379877	21.731000
14.035304	-0.408800	21.778000
14.065468	-0.351650	21.824000
14.096316	-0.286698	21.871000
14.126220	-0.332793	21.917000
14.157976	-0.358904	21.964000
14.189220	-0.304053	22.010000
14.220608	-0.256309	22.056000
14.250928	-0.315755	22.102000
14.282415	-0.351471	22.148000
14.755333	-0.255250	22.195000
14.786498	-0.148567	22.905000
14.817265	-0.074658	22.951000
14.848396	-0.111908	22.998000
14.879430	-0.159780	23.043000
14.910382	-0.146128	23.090000
14.941055	-0.057192	23.136000
14.970510	-0.071956	23.182000
15.001502	-0.104856	23.229000
15.110643	-0.129343	23.275000
15.141291	-0.182524	23.437000
15.172074	-0.138179	23.482000
15.203243	-0.148778	23.529000
15.234244	-0.230483	23.575000
15.348809	-0.265957	23.622000
15.379399	-0.303549	23.792000
15.409346	-0.245838	23.838000
15.439881	-0.205522	23.885000
15.471322	-0.267226	23.931000
15.502247	-0.298965	23.978000
15.533329	-0.233920	24.024000
15.564310	-0.194294	24.070000
15.595161	-0.244450	24.116000
15.626386	-0.267342	24.163000
15.655853	-0.195905	24.208000
15.686952	-0.163352	24.255000
15.717340	-0.228372	24.301000
15.748462	-0.261993	24.347000
15.852485	-0.256931	24.393000
15.883511	-0.264677	24.548000
15.913601	-0.183136	24.594000
15.945045	-0.202313	24.641000
15.974879	-0.253218	24.687000
16.081681	-0.254192	24.733000
16.112383	-0.202222	24.893000
16.142814	-0.151477	24.939000
16.174117	-0.102206	24.985000
16.205217	-0.159505	25.031000
16.236076	-0.195557	25.077000
16.266754	-0.143922	25.124000
16.298143	-0.096823	25.170000
16.328946	-0.147496	25.217000
16.359173	-0.175482	25.263000
16.389371	-0.121293	25.309000
16.420734	-0.086525	25.355000
16.451641	-0.148673	25.401000
16.482640	-0.181896	25.447000
16.586791	-0.212743	25.493000
16.617064	-0.237630	25.649000
16.647638	-0.187211	25.695000
16.678728	-0.246028	25.742000
16.709623	-0.332280	25.788000
16.815295	-0.360802	25.835000
16.846822	-0.459647	25.993000
16.877111	-0.421003	26.039000
16.908757	-0.390572	26.086000
16.938757	-0.451852	26.131000
16.969427	-0.487144	26.178000
17.000192	-0.432883	26.224000
17.030747	-0.403490	26.270000
17.061658	-0.472207	26.317000
17.092349	-0.511150	26.363000
17.123905	-0.456122	26.410000
17.155434	-0.443537	26.456000
17.185997	-0.519137	26.503000
17.216881	-0.557855	26.549000
17.320481	-0.595860	26.595000
17.350671	-0.593263	26.750000
17.381606	-0.525201	26.797000
17.412830	-0.574033	26.844000
17.443404	-0.621924	26.890000
17.549231	-0.609619	26.936000
17.579688	-0.672765	27.093000
17.611305	-0.615389	27.139000
17.642220	-0.584980	27.186000
17.672932	-0.640716	27.232000
17.702736	-0.664262	27.279000
17.733762	-0.594819	27.325000
17.765305	-0.573601	27.371000
17.796859	-0.640885	27.418000
17.827560	-0.677251	27.465000
17.859089	-0.620372	27.511000
17.890155	-0.625687	27.558000
17.920482	-0.700809	27.604000
17.952312	-0.736061	27.650000
18.424480	-0.853005	27.697000
18.455661	-0.902054	28.405000
18.487275	-0.837496	28.452000
18.517031	-0.885430	28.498000
18.547657	-0.930530	28.545000
18.577942	-0.908646	28.591000
18.609536	-0.842014	28.637000
18.639765	-0.890087	28.684000
18.671520	-0.932979	28.730000
18.778933	-0.920944	28.777000
18.809561	-0.927040	28.937000
18.840334	-0.843889	28.983000
18.870420	-0.845842	29.028000
18.902147	-0.895663	29.074000
19.015852	-0.895294	29.121000
19.046588	-0.895034	29.292000
19.077631	-0.812084	29.339000
19.108599	-0.781615	29.386000
19.140532	-0.819186	29.433000
19.171218	-0.808846	29.479000
19.202620	-0.703934	29.525000
19.233119	-0.690430	29.572000
19.264879	-0.737341	29.619000
19.295186	-0.737995	29.665000
19.325626	-0.658154	29.711000
19.355728	-0.682878	29.758000
19.387426	-0.760477	29.804000
19.418612	-0.796366	29.850000
19.522603	-0.902982	29.896000
19.553575	-0.881987	30.052000
19.584009	-0.836300	30.098000
19.614678	-0.904307	30.144000
19.644924	-0.959431	30.190000
19.749369	-0.929760	30.237000
19.780303	-1.005363	30.392000
19.811357	-0.920607	30.439000
19.843074	-0.912209	30.485000
19.873922	-0.967062	30.532000
19.905211	-0.979314	30.578000
19.934510	-0.903088	30.624000
19.965168	-0.918295	30.671000
19.995996	-0.977244	30.717000
20.027084	-0.984940	30.762000
20.058013	-0.913323	30.809000
20.089708	-0.943109	30.855000
20.121010	-1.001304	30.902000
20.151686	-1.002039	30.948000
20.253650	-1.003321	30.995000
20.284324	-0.936927	31.150000
20.315131	-0.875170	31.195000
20.346664	-0.922919	31.242000
20.378375	-0.948583	31.288000
20.483800	-0.883781	31.335000
20.515068	-0.910287	31.493000
20.545289	-0.830608	31.540000
20.576324	-0.849524	31.586000
20.607258	-0.897329	31.632000
20.637431	-0.888204	31.679000
20.667872	-0.800605	31.725000
20.699386	-0.820822	31.772000
20.730769	-0.862136	31.818000
20.761720	-0.846711	31.865000
20.793136	-0.768549	31.911000
20.824181	-0.804640	31.958000
20.854795	-0.852406	32.004000
20.884817	-0.836216	32.050000
20.987535	-0.853696	32.095000
21.018443	-0.795071	32.250000
21.049875	-0.762668	32.296000
21.080910	-0.825910	32.342000
21.111696	-0.854042	32.389000
21.217410	-0.786525	32.435000
21.247391	-0.822218	32.593000
21.277570	-0.747359	32.639000
21.308726	-0.783324	32.686000
21.339735	-0.825457	32.732000
21.370634	-0.803635	32.778000
21.401863	-0.732173	32.825000
21.433269	-0.777610	32.871000
21.463585	-0.818738	32.916000
21.494080	-0.792017	32.963000
21.525363	-0.720408	33.009000
21.555196	-0.762164	33.055000
21.586159	-0.802334	33.102000
21.616697	-0.772921	33.148000
22.091244	-0.768844	33.194000
22.122425	-0.665762	33.905000
22.152641	-0.664431	33.951000
22.183922	-0.710130	33.998000
22.214427	-0.695763	34.044000
22.246058	-0.599591	34.091000
22.277191	-0.601966	34.137000
22.308893	-0.642367	34.184000
22.339639	-0.628892	34.230000
22.446356	-0.636018	34.276000
22.477831	-0.568669	34.437000
22.508717	-0.540325	34.484000
22.540125	-0.592855	34.530000
22.569562	-0.609251	34.577000
22.682934	-0.532517	34.623000
22.715004	-0.522858	34.793000
22.745625	-0.472745	34.840000
22.777206	-0.541006	34.886000
22.807815	-0.595157	34.933000
22.838650	-0.563048	34.978000
22.869100	-0.510369	35.025000
22.899467	-0.559274	35.071000
22.930362	-0.594999	35.116000
22.961513	-0.534714	35.164000
22.992971	-0.483138	35.210000
23.023858	-0.533008	35.256000
23.054799	-0.565582	35.302000
23.085739	-0.509878	35.349000
23.188622	-0.527387	35.395000
23.218520	-0.434290	35.550000
23.249708	-0.433883	35.596000
23.280117	-0.450646	35.642000
23.311778	-0.407235	35.689000
23.418187	-0.306118	35.735000
23.448294	-0.299167	35.893000
23.479631	-0.261682	35.939000
23.509426	-0.303864	35.986000
23.540968	-0.304640	36.033000
23.571197	-0.214004	36.079000
23.602413	-0.200792	36.126000
23.632953	-0.264783	36.171000
23.664332	-0.282335	36.218000
23.695917	-0.196724	36.264000
23.726998	-0.194327	36.310000
23.757434	-0.257117	36.356000
23.788516	-0.276790	36.402000
23.818502	-0.201960	36.449000
23.921633	-0.179372	36.495000
23.952461	-0.083415	36.649000
23.982750	-0.099230	36.696000
24.014649	-0.109781	36.742000
24.045846	-0.044108	36.788000
24.151451	0.019827	36.835000
24.182335	0.048529	36.993000
24.212060	0.043222	37.040000
24.243321	-0.001522	37.087000
24.273893	0.012623	37.132000
24.305532	0.096961	37.179000
24.335935	0.073955	37.226000
24.368242	0.022667	37.271000
24.398884	0.027032	37.319000
24.429908	0.085920	37.365000
24.459270	0.029809	37.410000
24.490895	-0.038397	37.457000
24.521550	-0.043739	37.503000
24.552209	-0.011033	37.550000
24.655970	-0.063289	37.596000
24.686231	-0.023606	37.750000
24.718248	-0.067660	37.797000
24.748953	-0.087301	37.843000
24.779879	-0.015343	37.890000
24.883570	-0.007155	37.936000
24.914528	0.086510	38.093000
24.945195	0.057829	38.140000
24.976478	0.029905	38.186000
25.008309	0.075131	38.233000
25.038848	0.130505	38.279000
25.070049	0.080865	38.325000
25.099880	0.042531	38.371000
25.130183	0.073882	38.416000
25.160639	0.115953	38.462000
25.191949	0.053487	38.508000
25.222748	0.015327	38.555000
25.254485	0.069980	38.602000
25.285168	0.122949	38.648000
25.758836	0.008533	38.695000
25.789820	0.167364	39.405000
25.820582	0.110270	39.451000
25.851727	0.122035	39.498000
25.882423	0.179016	39.544000
25.914030	0.125850	39.591000
25.945329	0.077247	39.637000
25.976099	0.106255	39.684000
26.006113	0.159899	39.730000
26.114344	0.222889	39.776000
26.144332	0.221818	39.937000
26.175174	0.181477	39.984000
26.205741	0.197021	40.030000
26.237179	0.274798	40.076000
26.351340	0.242795	40.122000
26.382537	0.247461	40.293000
26.413887	0.197928	40.339000
26.443334	0.195552	40.385000
26.473615	0.276729	40.432000
26.504700	0.269551	40.478000
26.536273	0.214565	40.525000
26.567464	0.206189	40.571000
26.598200	0.268754	40.618000
26.629946	0.224632	40.664000
26.661039	0.151376	40.710000
26.692196	0.136630	40.757000
26.721404	0.187038	40.803000
26.752724	0.131547	40.849000
26.855402	0.096993	40.895000
26.887096	0.018976	41.050000
26.917716	-0.030677	41.096000
26.948306	0.010998	41.142000
26.979897	0.009728	41.189000
27.084426	-0.070885	41.235000
27.116000	-0.046018	41.393000
27.146367	-0.094427	41.440000
27.177289	-0.085622	41.486000
27.208512	-0.046641	41.533000
27.239578	-0.125148	41.579000
27.270662	-0.183178	41.625000
27.301643	-0.135334	41.672000
27.332957	-0.075552	41.718000
27.364275	-0.120967	41.765000
27.395211	-0.149935	41.812000
27.424851	-0.090457	41.858000
27.455920	-0.056855	41.904000
27.486934	-0.113314	41.951000
27.591258	-0.083342	41.997000
27.622093	-0.125475	42.152000
27.653169	-0.108763	42.199000
27.683951	-0.044034	42.245000
27.715841	-0.094933	42.292000
27.818494	-0.149882	42.338000
27.849622	-0.106821	42.494000
27.881045	-0.094838	42.541000
27.911527	0.015967	42.587000
27.943448	0.071280	42.634000
27.974220	0.036686	42.680000
28.005703	0.032094	42.727000
28.036416	0.123795	42.773000
28.067847	0.148921	42.820000
28.098546	0.119475	42.866000
28.128439	0.144255	42.913000
28.159173	0.246964	42.958000
28.190008	0.259442	43.005000
28.220648	0.227059	43.051000
28.324607	0.257499	43.096000
28.355412	0.200741	43.252000
28.384461	0.228795	43.298000
28.415677	0.273314	43.344000
28.446290	0.220689	43.389000
28.551552	0.189138	43.435000
28.582773	0.146013	43.593000
28.613257	0.118364	43.638000
28.644400	0.153837	43.685000
28.675027	0.083843	43.731000
28.705903	-0.005039	43.778000
28.735284	-0.027579	43.825000
28.766800	0.003719	43.870000
28.797539	-0.061068	43.916000
28.828613	-0.129333	43.962000
28.859078	-0.127179	44.008000
28.890363	-0.064937	44.055000
28.921379	-0.108436	44.100000
28.952138	-0.154306	44.147000
29.426643	-0.188125	44.193000
29.457930	-0.153224	44.906000
29.488912	-0.070489	44.952000
29.520410	-0.091803	44.999000
29.551117	-0.121774	45.045000
29.580831	-0.081093	45.091000
29.611471	0.006279	45.137000
29.642896	-0.016297	45.184000
29.673642	-0.035511	45.231000
29.780872	0.045814	45.277000
29.811767	0.047270	45.438000
29.843298	0.121057	45.484000
29.874572	0.096406	45.531000
29.905488	0.042948	45.577000
30.018953	0.048244	45.624000
30.046556	-0.015376	45.793000
30.076925	0.033094	45.840000
30.108256	-0.008225	45.886000
30.139453	-0.089719	45.932000
30.170510	-0.095113	45.979000
30.201047	-0.006578	46.025000
30.232048	-0.011357	46.070000
30.262968	-0.040228	46.117000
30.293431	-0.009547	46.164000
30.324937	0.083907	46.210000
30.355080	0.067673	46.256000
30.386007	0.040420	46.303000
30.416954	0.076178	46.349000
30.520635	0.097484	46.395000
30.551857	0.192153	46.551000
30.582990	0.240566	46.597000
30.613269	0.198303	46.643000
30.643111	0.184303	46.689000
30.748409	0.259579	46.735000
30.780075	0.250991	46.893000
30.811387	0.295515	46.940000
30.841976	0.238746	46.986000
30.873419	0.196655	47.033000
30.904783	0.238233	47.080000
30.936095	0.260429	47.126000
30.966808	0.190000	47.172000
30.996809	0.155212	47.219000
31.027985	0.219774	47.265000
31.058546	0.254607	47.312000
31.089829	0.218292	47.358000
31.121587	0.210558	47.405000
31.152192	0.287818	47.451000
31.255546	0.281670	47.498000
31.286487	0.348336	47.652000
31.316797	0.300926	47.698000
31.347260	0.251872	47.745000
31.378552	0.276417	47.791000
31.482959	0.309398	47.838000
31.514098	0.217315	47.994000
31.544525	0.180745	48.040000
31.575255	0.100791	48.084000
31.605806	0.075966	48.131000
31.636926	0.126217	48.178000
31.667228	0.086078	48.224000
31.698073	0.031299	48.271000
31.729429	0.046640	48.317000
31.760497	0.117348	48.363000
31.791573	0.077721	48.410000
31.822305	0.031004	48.456000
31.853405	0.052628	48.502000
31.882958	0.109418	48.546000
31.985947	0.040537	48.592000
32.016831	0.040611	48.748000
32.047474	-0.037546	48.794000
32.079055	-0.073840	48.841000
32.110503	-0.019682	48.887000
32.216737	-0.034826	48.933000
32.247588	-0.082133	49.093000
32.278383	-0.152537	49.140000
32.307926	-0.206677	49.186000
32.339628	-0.158402	49.232000
32.370246	-0.116658	49.279000
32.401637	-0.173276	49.325000
32.432313	-0.210188	49.372000
32.463677	-0.155714	49.418000
32.494984	-0.133756	49.463000
32.525060	-0.186467	49.510000
32.555979	-0.189818	49.556000
32.585741	-0.126461	49.602000
32.616855	-0.129761	49.648000
33.092130	-0.209074	49.695000
33.122207	-0.441808	50.406000
33.152611	-0.480219	50.451000
33.182023	-0.425377	50.497000
33.213318	-0.424350	50.542000
33.243183	-0.488918	50.589000
33.275277	-0.506786	50.635000
33.305842	-0.434740	50.680000
33.336357	-0.424340	50.726000
33.446476	-0.369096	50.772000
33.476599	-0.416735	50.938000
33.508477	-0.441335	50.983000
33.539065	-0.379992	51.030000
33.570103	-0.353788	51.077000
33.683153	-0.412969	51.122000
33.713745	-0.426583	51.293000
33.744909	-0.472175	51.339000
33.775662	-0.425699	51.385000
33.807398	-0.391063	51.432000
33.837644	-0.453931	51.478000
33.868712	-0.470914	51.524000
33.898678	-0.389598	51.570000
33.929335	-0.372242	51.617000
33.959589	-0.433450	51.663000
33.991194	-0.439018	51.708000
34.022355	-0.340743	51.755000
34.053511	-0.307629	51.801000
34.083692	-0.335321	51.847000
34.186389	-0.278581	51.893000
34.217687	-0.309587	52.049000
34.248417	-0.256709	52.095000
34.279731	-0.210911	52.142000
34.310269	-0.259810	52.188000
34.417234	-0.277418	52.235000
34.448571	-0.207211	52.393000
34.479409	-0.170974	52.440000
34.511003	-0.078977	52.486000
34.540327	-0.102792	52.533000
34.572283	-0.130372	52.579000
34.602337	-0.089269	52.625000
34.633274	-0.018751	52.672000
34.663727	-0.058095	52.718000
34.695276	-0.089121	52.765000
34.726351	-0.040846	52.811000
34.757492	0.009824	52.857000
34.788146	-0.043685	52.903000
34.819202	-0.077330	52.949000
34.920620	-0.036713	52.995000
34.951530	-0.031271	53.149000
34.982937	0.028269	53.195000
35.013724	-0.013949	53.242000
35.044969	-0.080798	53.288000
35.151039	-0.081184	53.334000
35.181923	-0.121542	53.493000
35.212268	-0.069698	53.539000
35.242053	-0.066578	53.586000
35.272864	-0.138708	53.632000
35.304370	-0.167212	53.678000
35.335534	-0.109396	53.725000
35.366940	-0.128985	53.771000
35.398339	-0.194749	53.818000
35.429726	-0.200033	53.864000
35.461017	-0.139791	53.911000
35.490959	-0.173213	53.958000
35.521324	-0.222233	54.003000
35.552039	-0.204239	54.050000
35.655708	-0.210721	54.096000
35.687164	-0.139326	54.251000
35.717932	-0.114490	54.298000
35.748274	-0.169491	54.344000
35.780230	-0.181178	54.391000
35.884022	-0.105696	54.437000
35.914509	-0.100861	54.593000
35.945328	-0.039030	54.640000
35.975939	-0.105864	54.686000
36.007533	-0.149629	54.733000
36.039108	-0.093335	54.779000
36.069923	-0.041858	54.826000
36.100680	-0.082592	54.871000
36.132466	-0.101659	54.918000
36.162919	-0.038070	54.965000
36.193442	-0.019517	55.011000
36.223265	-0.089613	55.057000
36.255109	-0.125264	55.104000
36.285978	-0.073608	55.150000
36.758841	-0.101427	55.197000
36.790251	-0.107291	55.906000
36.819866	-0.168525	55.952000
36.851568	-0.184815	55.999000
36.882398	-0.120777	56.045000
36.914196	-0.135868	56.091000
36.944757	-0.198280	56.137000
36.976440	-0.203041	56.184000
37.007143	-0.141062	56.230000
37.114154	-0.185110	56.277000
37.144996	-0.168103	56.437000
37.175188	-0.234045	56.484000
37.206460	-0.259841	56.531000
37.236583	-0.194642	56.577000
37.351093	-0.197377	56.623000
37.382299	-0.205585	56.793000
37.413141	-0.269553	56.840000
37.444674	-0.298848	56.886000
37.475023	-0.237419	56.933000
37.505338	-0.230641	56.979000
37.536276	-0.288902	57.026000
37.567248	-0.300065	57.071000
37.597982	-0.230008	57.118000
37.629184	-0.242872	57.164000
37.660241	-0.308277	57.210000
37.691293	-0.323618	57.257000
37.722803	-0.267067	57.303000
37.752626	-0.306749	57.350000
37.856150	-0.306517	57.396000
37.886461	-0.362519	57.551000
37.917951	-0.389196	57.597000
37.949404	-0.332907	57.644000
37.980341	-0.312104	57.690000
38.085432	-0.376721	57.736000
38.115086	-0.368465	57.893000
38.146354	-0.411252	57.940000
38.176876	-0.376605	57.986000
38.207940	-0.323890	58.033000
38.238332	-0.378648	58.079000
38.270073	-0.417342	58.125000
38.300403	-0.378029	58.170000
38.331901	-0.341111	58.217000
38.362397	-0.394420	58.263000
38.393169	-0.417352	58.309000
38.422985	-0.360455	58.355000
38.452985	-0.329289	58.400000
38.483792	-0.381239	58.446000
38.587150	-0.343081	58.493000
38.618679	-0.388999	58.647000
38.648890	-0.368602	58.693000
38.679440	-0.309057	58.739000
38.709370	-0.353862	58.786000
38.817400	-0.403447	58.832000
38.848779	-0.415130	58.994000
38.879697	-0.426404	59.039000
38.910358	-0.361325	59.086000
38.940765	-0.387719	59.131000
38.972356	-0.445658	59.178000
39.003266	-0.439050	59.224000
39.034392	-0.374601	59.270000
39.063562	-0.410380	59.316000
39.094934	-0.455889	59.363000
39.125937	-0.428280	59.409000
39.157285	-0.367032	59.456000
39.187812	-0.412417	59.502000
39.219079	-0.451487	59.549000
39.323547	-0.420844	59.595000
39.354623	-0.424778	59.750000
39.384781	-0.352131	59.796000
39.414377	-0.363309	59.843000
39.445303	-0.400294	59.889000
39.550728	-0.373677	59.935000
39.582196	-0.398940	60.093000
39.613636	-0.340807	60.140000
39.644328	-0.328264	60.186000
39.675765	-0.386075	60.233000
39.707025	-0.390930	60.279000
39.738062	-0.312137	60.326000
39.768274	-0.310020	60.372000
39.799192	-0.349301	60.419000
39.829803	-0.329763	60.465000
39.861324	-0.249903	60.512000
39.891601	-0.273446	60.558000
39.923134	-0.309978	60.605000
39.954344	-0.278175	60.651000
40.426450	-0.234279	60.697000
40.457433	-0.192415	61.406000
40.488306	-0.239520	61.452000
40.519596	-0.277271	61.498000
40.550549	-0.232626	61.545000
40.581291	-0.187781	61.591000
40.611464	-0.243864	61.637000
40.641898	-0.276326	61.684000
40.672843	-0.216222	61.730000
40.781326	-0.233740	61.776000
40.811940	-0.176332	61.938000
40.843124	-0.222904	61.985000
40.874311	-0.258762	62.031000
40.905268	-0.212953	62.078000
41.019102	-0.172478	62.124000
41.049939	-0.167063	62.294000
41.079548	-0.215809	62.340000
41.110958	-0.248255	62.387000
41.142198	-0.197366	62.433000
41.172544	-0.161473	62.479000
41.203532	-0.216020	62.525000
41.235080	-0.240676	62.571000
41.266244	-0.180925	62.618000
41.297435	-0.170457	62.664000
41.327358	-0.228599	62.711000
41.359056	-0.238269	62.757000
41.389195	-0.175925	62.803000
41.420059	-0.187359	62.850000
41.524012	-0.167454	62.896000
41.554789	-0.218681	63.051000
41.586775	-0.248393	63.098000
41.617378	-0.191217	63.144000
41.647712	-0.164700	63.191000
41.751938	-0.220930	63.236000
41.782661	-0.179616	63.394000
41.813514	-0.213028	63.440000
41.845373	-0.170210	63.487000
41.876018	-0.111392	63.532000
41.906529	-0.155514	63.578000
41.938377	-0.184910	63.625000
41.968858	-0.130373	63.671000
41.999791	-0.092569	63.717000
42.029311	-0.142841	63.764000
42.060675	-0.160318	63.810000
42.091612	-0.087998	63.857000
42.122938	-0.073609	63.903000
42.153322	-0.126958	63.950000
42.258213	-0.089813	63.996000
42.288997	-0.122428	64.151000
42.319146	-0.072853	64.197000
42.349873	-0.028589	64.243000
42.380483	-0.077949	64.290000
42.485716	-0.099600	64.336000
42.515808	-0.068722	64.494000
42.548133	-0.041827	64.540000
42.578878	0.022425	64.587000
42.610031	-0.017116	64.632000
42.640077	-0.056185	64.678000
42.671229	-0.016867	64.725000
42.701137	0.036802	64.771000
42.732374	-0.008183	64.818000
42.763400	-0.036169	64.864000
42.794376	0.024514	64.911000
42.826055	0.066155	64.957000
42.856497	0.019176	65.003000
42.888187	0.003856	65.050000
42.990177	0.005741	65.096000
43.021399	0.027860	65.251000
43.052160	0.075517	65.298000
43.083731	0.024148	65.344000
43.114507	-0.013550	65.391000
43.218967	0.032326	65.437000
43.250316	0.000238	65.593000
43.280919	0.061249	65.639000
43.311545	0.034590	65.685000
43.341084	-0.012732	65.732000
43.372694	0.011134	65.778000
43.403332	0.072184	65.824000
43.434611	0.031309	65.870000
43.465003	-0.006056	65.917000
43.497159	0.035944	65.964000
43.528711	0.084054	66.010000
43.559721	0.032787	66.056000
43.590290	0.001938	66.103000
43.621039	0.057462	66.149000
44.094201	0.140320	66.195000
44.126107	0.168352	66.906000
44.156568	0.114725	66.953000
44.187748	0.099970	66.999000
44.218074	0.172986	67.046000
44.249592	0.184757	67.092000
44.279745	0.135090	67.139000
44.310933	0.136692	67.185000
44.341490	0.211219	67.232000
44.448513	0.232659	67.277000
44.479972	0.271266	67.438000
44.510879	0.225158	67.484000
44.542055	0.216274	67.531000
44.572839	0.294221	67.577000
44.685589	0.310711	67.623000
44.716250	0.383274	67.794000
44.747741	0.324081	67.840000
44.778740	0.318058	67.887000
44.809719	0.388188	67.933000
44.841479	0.378048	67.980000
44.872274	0.321431	68.026000
44.902893	0.323048	68.072000
44.934053	0.383210	68.118000
44.964376	0.349872	68.165000
44.994752	0.303057	68.211000
45.024995	0.331519	68.256000
45.056754	0.394068	68.302000
45.088033	0.357921	68.349000
45.191710	0.409148	68.395000
45.222083	0.346214	68.550000
45.252037	0.322019	68.596000
45.283316	0.380989	68.643000
45.314803	0.358962	68.689000
45.420370	0.291634	68.736000
45.451038	0.269825	68.893000
45.481595	0.228984	68.940000
45.513121	0.275188	68.986000
45.544315	0.281891	69.032000
45.574008	0.203106	69.078000
45.604070	0.157088	69.124000
45.635065	0.194174	69.170000
45.666048	0.166892	69.216000
45.696855	0.081128	69.262000
45.728127	0.050936	69.309000
45.759276	0.097421	69.355000
45.790321	0.064445	69.401000
45.821800	0.004798	69.448000
45.923375	-0.016089	69.494000
45.954339	-0.051682	69.649000
45.985507	-0.003337	69.696000
46.016817	-0.005246	69.742000
46.047985	-0.072801	69.788000
46.154002	-0.085791	69.835000
46.185216	-0.105980	69.994000
46.216368	-0.043612	70.040000
46.248012	-0.013081	70.086000
46.277528	-0.072685	70.133000
46.307698	-0.096142	70.180000
46.339342	-0.035760	70.226000
46.370410	-0.039933	70.272000
46.401486	-0.093904	70.319000
46.431908	-0.087543	70.365000
46.463318	-0.016477	70.411000
46.494586	-0.022286	70.457000
46.525785	-0.039500	70.504000
46.555362	0.017780	70.549000
46.658989	0.098522	70.596000
46.689435	0.177126	70.751000
46.721087	0.197430	70.797000
46.751855	0.153544	70.844000
46.782535	0.161031	70.890000
46.888382	0.230485	70.936000
46.917852	0.164908	71.094000
46.949466	0.166040	71.140000
46.979366	0.084023	71.187000
47.010280	0.028623	71.232000
47.041591	0.047260	71.278000
47.072770	0.011823	71.325000
47.103765	-0.091697	71.371000
47.134668	-0.147883	71.418000
47.165920	-0.133873	71.464000
47.196685	-0.185364	71.511000
47.227457	-0.252892	71.557000
47.256808	-0.236935	71.604000
47.289098	-0.166182	71.650000
47.763613	-0.075277	71.696000
47.793935	-0.133999	72.406000
47.823897	-0.145971	72.453000
47.853836	-0.069909	72.498000
47.885491	-0.022665	72.545000
47.916006	-0.065549	72.590000
47.947497	-0.072903	72.637000
47.977996	0.002218	72.683000
48.010205	0.005094	72.730000
48.117739	0.006783	72.776000
48.148400	-0.049877	72.938000
48.179910	-0.069174	72.985000
48.209722	-0.008758	73.031000
48.241162	-0.004449	73.077000
48.354286	-0.053440	73.124000
48.385054	-0.017831	73.293000
48.416245	-0.024307	73.340000
48.446910	0.043694	73.386000
48.478693	0.038923	73.432000
48.508566	-0.017293	73.478000
48.539576	-0.014097	73.525000
48.568881	0.045075	73.571000
48.600925	0.014040	73.617000
48.631832	-0.035655	73.664000
48.663157	-0.013017	73.710000
48.693491	0.045476	73.757000
48.724859	-0.003443	73.803000
48.755989	-0.053609	73.848000
48.857395	-0.091371	73.894000
48.889047	-0.118065	74.049000
48.919162	-0.067016	74.095000
48.950722	-0.088605	74.141000
48.981944	-0.154327	74.187000
49.088298	-0.157964	74.234000
49.120131	-0.189523	74.394000
49.149996	-0.133546	74.441000
49.181598	-0.130468	74.487000
49.211767	-0.194337	74.533000
49.242724	-0.204471	74.580000
49.273312	-0.148378	74.626000
49.304768	-0.169619	74.672000
49.335828	-0.220049	74.719000
49.366762	-0.196966	74.764000
49.397757	-0.138940	74.811000
49.429182	-0.174865	74.858000
49.460127	-0.208108	74.904000
49.490223	-0.162883	74.950000
49.593362	-0.177103	74.997000
49.624211	-0.113086	75.152000
49.655441	-0.138212	75.198000
49.686186	-0.181896	75.244000
49.717312	-0.154696	75.291000
49.822383	-0.097699	75.336000
49.851845	-0.099832	75.493000
49.882621	-0.109037	75.540000
49.913059	-0.163669	75.586000
49.944208	-0.159684	75.631000
49.974881	-0.103823	75.677000
50.005672	-0.140306	75.722000
50.035918	-0.199584	75.768000
50.065941	-0.190441	75.814000
50.096118	-0.148810	75.860000
50.127282	-0.197029	75.906000
50.158269	-0.244661	75.952000
50.189283	-0.211270	75.998000
50.219310	-0.170093	76.043000
50.321958	-0.170986	76.089000
50.351470	-0.179447	76.244000
50.382764	-0.231935	76.289000
50.413571	-0.225839	76.335000
50.444044	-0.163290	76.380000
50.554317	-0.188779	76.426000
50.585270	-0.154495	76.593000
50.616342	-0.199309	76.639000
50.647121	-0.187622	76.685000
50.677648	-0.112379	76.731000
50.707168	-0.128346	76.776000
50.737625	-0.166768	76.821000
50.767855	-0.141347	76.867000
50.798378	-0.072790	76.913000
50.829235	-0.107365	76.959000
50.860003	-0.141252	77.005000
50.890649	-0.098803	77.050000
50.921498	-0.041373	77.095000
50.950368	-0.081310	77.141000
51.195282	-0.029773	77.187000
51.440331	-0.037959	77.555000
51.471541	-0.040650	77.922000
51.502605	0.009971	77.969000
51.533558	-0.039357	78.015000
51.565037	-0.081839	78.062000
51.595763	-0.042878	78.108000
51.627043	-0.010637	78.154000
51.657388	-0.071476	78.201000
51.688994	-0.103373	78.246000
51.790696	-0.143016	78.294000
51.822268	-0.135355	78.447000
51.853044	-0.099209	78.493000
51.883843	-0.157309	78.540000
51.915314	-0.208546	78.586000
52.022510	-0.179542	78.632000
52.054039	-0.211576	78.794000
52.084615	-0.159393	78.840000
52.114938	-0.194991	78.887000
52.144519	-0.228621	78.933000
52.176506	-0.181484	78.980000
52.207735	-0.146308	79.026000
52.238792	-0.199700	79.072000
52.269871	-0.223114	79.119000
52.300405	-0.164540	79.164000
52.332142	-0.150594	79.211000
52.362126	-0.204741	79.258000
52.393506	-0.211587	79.304000
52.423513	-0.142661	79.350000
52.527071	-0.158486	79.396000
52.558085	-0.109878	79.551000
52.589434	-0.154944	79.598000
52.620218	-0.174273	79.644000
52.651301	-0.104297	79.690000
52.756261	-0.068277	79.737000
52.785750	-0.023304	79.893000
52.816507	-0.056549	79.940000
52.846449	-0.088710	79.985000
52.878716	-0.046535	80.032000
52.909853	-0.004406	80.079000
52.941006	-0.059051	80.125000
52.971905	-0.091708	80.171000
53.003199	-0.038629	80.217000
53.033334	-0.014587	80.263000
53.063127	-0.064663	80.309000
53.093338	-0.065412	80.355000
53.125213	0.010734	80.401000
53.156384	0.020403	80.448000
53.259739	0.062318	80.494000
53.290964	0.011312	80.649000
53.320515	-0.015630	80.696000
53.352182	0.038870	80.742000
53.382977	0.048213	80.789000
53.488302	-0.015672	80.835000
53.519674	-0.005897	80.994000
53.550450	-0.030667	81.040000
53.582263	0.031056	81.087000
53.613243	0.058541	81.133000
53.644100	0.014246	81.179000
53.673546	0.013734	81.225000
53.704722	0.070549	81.271000
53.734027	0.062149	81.316000
53.764883	0.007548	81.361000
53.795183	0.013713	81.407000
53.826509	0.079659	81.453000
53.857427	0.064455	81.499000
53.888541	0.018307	81.545000
53.990623	0.022123	81.592000
54.021649	0.007221	81.747000
54.052859	0.067662	81.793000
54.083889	0.064413	81.840000
54.115372	0.009237	81.886000
54.222952	0.015611	81.933000
54.253743	0.028090	82.094000
54.284927	0.096394	82.140000
54.316125	0.115100	82.187000
54.347347	0.067445	82.233000
54.377124	0.073106	82.280000
54.408415	0.150346	82.326000
54.438281	0.142838	82.372000
54.469456	0.100527	82.419000
54.500394	0.120702	82.465000
54.531800	0.179349	82.512000
54.563294	0.130652	82.559000
54.594581	0.083023	82.605000
54.625473	0.115100	82.652000
55.097260	0.146257	82.698000
55.127921	0.172704	83.406000
55.159723	0.120516	83.452000
55.190318	0.121468	83.498000
55.220307	0.191376	83.545000
55.251705	0.176361	83.591000
55.282389	0.121342	83.637000
55.313446	0.130747	83.684000
55.344026	0.178049	83.731000
55.451375	0.116770	83.777000
55.482858	0.089517	83.938000
55.513680	0.023540	83.984000
55.544933	0.022962	84.030000
55.575471	0.066582	84.076000
55.688652	0.020234	84.122000
55.720104	-0.007230	84.294000
55.750730	-0.055657	84.340000
55.781602	-0.026943	84.386000
55.812717	0.018653	84.433000
55.844019	-0.027843	84.479000
55.875076	-0.060356	84.526000
55.906439	-0.014202	84.572000
55.936455	0.007189	84.618000
55.967815	-0.049951	84.664000
55.997519	-0.062762	84.711000
56.028307	0.004213	84.757000
56.059083	0.011823	84.803000
56.091065	-0.031989	84.850000
56.194208	-0.014925	84.896000
56.225737	-0.041732	85.050000
56.256736	0.016637	85.097000
56.285741	0.037685	85.143000
56.316621	-0.016435	85.189000
56.422268	-0.024803	85.235000
56.454470	-0.012128	85.394000
56.485265	0.037171	85.441000
56.516045	0.068650	85.487000
56.547866	0.008406	85.534000
56.579107	-0.019926	85.580000
56.609791	0.030793	85.627000
56.640079	0.020550	85.672000
56.671220	-0.046662	85.719000
56.702054	-0.055793	85.766000
56.732722	0.001560	85.812000
56.763229	-0.036064	85.859000
56.795027	-0.094490	85.906000
56.826057	-0.078401	85.952000
56.929899	-0.124192	85.998000
56.960978	-0.065115	86.153000
56.990152	-0.075857	86.199000
57.021232	-0.120872	86.245000
57.051920	-0.092955	86.292000
57.157287	-0.018826	86.337000
57.187817	0.032819	86.494000
57.219016	0.049052	86.540000
57.249496	0.003382	86.587000
57.281209	0.012256	86.633000
57.311816	0.081579	86.680000
57.341575	0.066688	86.727000
57.372911	0.031666	86.773000
57.404410	0.072761	86.819000
57.435716	0.136682	86.866000
57.466377	0.101346	86.913000
57.498010	0.077226	86.959000
57.528974	0.132583	87.006000
57.559950	0.161639	87.051000
57.662055	0.154613	87.097000
57.692839	0.111392	87.252000
57.723116	0.058103	87.299000
57.754710	0.079388	87.345000
57.785901	0.117013	87.391000
57.890892	0.060785	87.437000
57.921449	0.081922	87.594000
57.950296	0.037434	87.640000
57.982525	0.068503	87.686000
58.012782	0.120599	87.733000
58.044157	0.080217	87.779000
58.075252	0.048820	87.826000
58.106574	0.095568	87.872000
58.137869	0.121161	87.919000
58.169298	0.063912	87.965000
58.199705	0.044196	88.011000
58.230604	0.100685	88.058000
58.261207	0.102551	88.104000
58.290865	0.045718	88.150000
58.765277	-0.006828	88.197000
58.796863	0.039436	88.906000
58.827520	0.091951	88.953000
58.858392	0.049745	88.999000
58.888327	0.024398	89.046000
58.919933	0.082567	89.092000
58.950329	0.108561	89.138000
58.981650	0.053603	89.185000
59.011401	0.042060	89.230000
59.119545	0.045667	89.276000
59.151236	0.101755	89.438000
59.181920	0.124406	89.485000
59.213184	0.069523	89.531000
59.243868	0.059119	89.577000
59.356599	0.123480	89.624000
59.387852	0.134766	89.794000
59.418812	0.133980	89.841000
59.449888	0.082944	89.887000
59.480864	0.096153	89.933000
59.512013	0.157947	89.979000
59.542727	0.130079	90.025000
59.572839	0.085145	90.072000
59.603373	0.114990	90.118000
59.634057	0.151680	90.164000
59.665666	0.098169	90.211000
59.696462	0.067509	90.257000
59.726969	0.123838	90.303000
59.758663	0.149099	90.349000
59.860807	0.209909	90.396000
59.891602	0.183871	90.550000
59.922344	0.167156	90.597000
59.953197	0.230089	90.643000
59.984411	0.271978	90.688000
60.087622	0.232817	90.734000
60.118656	0.281020	90.894000
60.149747	0.242224	90.941000
60.180489	0.280075	90.987000
60.211395	0.286673	91.033000
60.241818	0.216128	91.080000
60.272529	0.188341	91.126000
60.303209	0.241627	91.172000
60.334165	0.238651	91.219000
60.365656	0.194739	91.266000
60.396901	0.218755	91.312000
60.428560	0.287555	91.358000
60.459413	0.267122	91.405000
60.490408	0.238693	91.451000
60.592587	0.319822	91.498000
60.623386	0.343796	91.652000
60.654504	0.425633	91.699000
60.685384	0.430677	91.745000
60.717001	0.403392	91.792000
60.821623	0.444729	91.838000
60.852549	0.479701	91.993000
60.883025	0.554529	92.041000
60.913087	0.556574	92.087000
60.944570	0.511724	92.134000
60.975611	0.527160	92.180000
61.006437	0.591942	92.227000
61.036725	0.562372	92.273000
61.068108	0.523658	92.319000
61.099680	0.560076	92.365000
61.130794	0.610335	92.411000
61.161213	0.562633	92.457000
61.191816	0.530284	92.504000
61.221843	0.581394	92.550000
61.326226	0.549757	92.596000
61.356733	0.603843	92.751000
61.388017	0.561501	92.798000
61.419834	0.520124	92.844000
61.450760	0.557716	92.890000
61.554540	0.587065	92.937000
61.584571	0.580908	93.094000
61.616188	0.542249	93.141000
61.647068	0.503243	93.187000
61.678678	0.545625	93.234000
61.709300	0.583879	93.280000
61.739750	0.534491	93.326000
61.771290	0.515939	93.372000
61.802020	0.578897	93.418000
61.832716	0.592509	93.465000
61.861863	0.543075	93.510000
61.893369	0.545857	93.557000
61.924495	0.612117	93.603000
61.955916	0.595790	93.650000
62.429521	0.603180	93.696000
62.458860	0.636506	94.407000
62.490623	0.701920	94.453000
62.521430	0.716183	94.499000
62.552921	0.670371	94.545000
62.583117	0.677265	94.591000
62.615437	0.745815	94.638000
62.646202	0.737582	94.685000
62.677408	0.696289	94.731000
62.784646	0.723466	94.778000
62.814957	0.730498	94.938000
62.846171	0.788713	94.985000
62.876110	0.764838	95.031000
62.907412	0.725747	95.077000
63.021596	0.764279	95.124000
63.052211	0.781967	95.294000
63.083740	0.826449	95.340000
63.114704	0.780516	95.387000
63.145630	0.743805	95.433000
63.174094	0.784871	95.479000
63.206483	0.801725	95.525000
63.237521	0.740980	95.572000
63.268485	0.721608	95.619000
63.299411	0.777733	95.665000
63.330798	0.771785	95.712000
63.362181	0.719819	95.757000
63.393003	0.730962	95.804000
63.423944	0.796841	95.851000
63.525681	0.802031	95.897000
63.557613	0.824528	96.052000
63.588655	0.777334	96.099000
63.619519	0.777714	96.145000
63.650272	0.845439	96.191000
63.754832	0.839022	96.237000
63.786826	0.880023	96.394000
63.816139	0.829983	96.440000
63.847061	0.818448	96.487000
63.877683	0.887006	96.533000
63.909416	0.893855	96.580000
63.940395	0.846205	96.626000
63.971590	0.857886	96.672000
64.002416	0.924947	96.719000
64.033615	0.907100	96.765000
64.064695	0.867281	96.811000
64.095294	0.901864	96.857000
64.124695	0.957013	96.903000
64.155970	0.918214	96.950000
64.259970	0.967127	96.996000
64.290496	0.925271	97.150000
64.322052	0.952470	97.197000
64.352359	1.014444	97.243000
64.383266	0.988550	97.290000
64.488245	0.958780	97.336000
64.518618	0.983278	97.494000
64.549989	1.001827	97.540000
64.580877	1.059462	97.586000
64.612271	1.022632	97.633000
64.643297	0.987197	97.679000
64.674331	1.030674	97.725000
64.704726	1.067090	97.772000
64.735914	1.014534	97.818000
64.766256	0.989141	97.864000
64.796298	1.042818	97.910000
64.826632	1.053867	97.957000
64.858826	0.998620	98.003000
64.890243	0.995754	98.049000
64.993332	0.974437	98.096000
65.024059	1.024214	98.250000
65.054047	1.034313	98.297000
65.084343	0.976136	98.343000
65.116199	0.963857	98.389000
65.222054	1.017157	98.435000
65.253002	0.987756	98.594000
65.283406	0.997813	98.640000
65.314086	0.941922	98.686000
65.345673	0.936710	98.733000
65.377029	1.002299	98.779000
65.407709	0.984795	98.826000
65.437636	0.944667	98.872000
65.468746	0.977321	98.918000
65.499549	1.028106	98.965000
65.530667	0.991406	99.011000
65.561509	0.959621	99.056000
65.592957	1.006619	99.103000
65.623499	1.035519	99.149000
66.096907	1.063665	99.195000
66.127825	1.168980	99.906000
66.158636	1.235297	99.953000
66.190138	1.329379	99.999000
66.221110	1.323465	100.046000
66.251998	1.323180	100.092000
66.266650	1.433401	100.139000
66.314579	1.435517	100.185000
66.344629	1.385635	100.232000
66.451376	1.395125	100.278000
66.482063	1.366804	100.438000
66.512659	1.422578	100.484000
66.544369	1.446570	100.531000
66.575279	1.400976	100.577000
66.689486	1.400664	100.624000
66.720666	1.453848	100.794000
66.750562	1.520774	100.840000
66.781572	1.521534	100.888000
66.812644	1.475123	100.934000
66.843647	1.491927	100.980000
66.874581	1.543636	101.027000
66.905737	1.506168	101.072000
66.937062	1.465045	101.119000
66.967812	1.511199	101.165000
66.999736	1.572034	101.212000
67.030416	1.559655	101.259000
67.061342	1.584876	101.305000
67.090148	1.683450	101.352000
67.194596	1.754278	101.397000
67.225968	1.810787	101.553000
67.257263	1.772734	101.599000
67.288350	1.757731	101.646000
67.318846	1.833052	101.692000
67.422442	1.863081	101.739000
67.452277	1.988367	101.894000
67.483786	1.983352	101.940000
67.515219	2.008911	101.987000
67.545776	2.112733	102.033000
67.576948	2.161629	102.079000
67.608366	2.148025	102.126000
67.639384	2.168749	102.172000
67.670464	2.226724	102.219000
67.700552	2.193902	102.265000
67.731739	2.150964	102.312000
67.762189	2.183291	102.359000
67.793384	2.210913	102.404000
67.824624	2.143275	102.451000
67.927575	2.084793	102.497000
67.959438	2.020797	102.652000
67.989865	2.037573	102.698000
68.020222	2.054452	102.745000
68.049957	1.988366	102.791000
68.155359	1.946672	102.837000
68.187138	1.892850	102.994000
68.218064	1.926555	103.040000
68.249105	1.960576	103.087000
68.279109	1.911618	103.133000
68.311110	1.894215	103.179000
68.340876	1.951328	103.225000
68.371748	1.954638	103.272000
68.402236	1.901844	103.318000
68.433408	1.906594	103.364000
68.464718	1.960280	103.411000
68.495782	1.932505	103.457000
68.526493	1.887710	103.503000
68.557426	1.924202	103.550000
68.660362	1.898095	103.595000
68.690865	1.955392	103.751000
68.721752	1.933080	103.797000
68.752671	1.884631	103.843000
68.784319	1.908854	103.889000
68.890166	1.961986	103.935000
68.920961	1.972463	104.094000
68.952441	1.965528	104.141000
68.982145	1.923780	104.187000
69.013078	1.951570	104.233000
69.043620	2.009301	104.280000
69.074492	1.982910	104.326000
69.105049	1.956426	104.372000
69.136575	2.016164	104.418000
69.167708	2.083073	104.465000
69.199079	2.079120	104.511000
69.229483	2.088203	104.558000
69.261008	2.161785	104.604000
69.291127	2.169659	104.649000
69.764935	2.273840	104.696000
69.795431	2.429366	105.407000
69.826649	2.530168	105.453000
69.857974	2.586257	105.499000
69.888262	2.564083	105.546000
69.918543	2.590450	105.592000
69.948908	2.679561	105.638000
69.980341	2.687781	105.685000
70.011636	2.659344	105.731000
70.119281	2.724144	105.777000
70.150007	2.742340	105.938000
70.180441	2.819471	105.984000
70.212112	2.820114	106.031000
70.243077	2.797423	106.077000
70.356170	2.854715	106.124000
70.386658	2.952499	106.294000
70.417430	3.023120	106.341000
70.448940	3.000670	106.386000
70.479927	2.987067	106.433000
70.511398	3.062331	106.480000
70.542086	3.102836	106.526000
70.573527	3.067876	106.573000
70.604353	3.080889	106.619000
70.634380	3.168354	106.665000
70.664714	3.186661	106.712000
70.696216	3.174992	106.758000
70.726989	3.237400	106.804000
70.758337	3.333287	106.851000
70.861557	3.449742	106.897000
70.892214	3.476925	107.052000
70.922855	3.456014	107.098000
70.953950	3.508674	107.144000
70.984500	3.594335	107.191000
71.089486	3.588125	107.237000
71.120282	3.723303	107.394000
71.151738	3.689985	107.440000
71.182679	3.737740	107.486000
71.212752	3.812366	107.531000
71.242180	3.808655	107.577000
71.272721	3.809369	107.622000
71.303609	3.899077	107.669000
71.334289	3.971254	107.714000
71.365384	3.974439	107.761000
71.396786	4.015784	107.807000
71.427566	4.123206	107.853000
71.458576	4.170215	107.900000
71.488227	4.178281	107.946000
71.592061	4.423136	107.993000
71.622772	4.440670	108.147000
71.654021	4.531622	108.193000
71.684916	4.571854	108.240000
71.715719	4.557343	108.285000
71.824109	4.605837	108.333000
71.854789	4.721232	108.494000
71.886245	4.809282	108.540000
71.916265	4.818214	108.587000
71.945976	4.773556	108.632000
71.976487	4.797402	108.678000
72.007306	4.881804	108.724000
72.038178	4.874547	108.769000
72.068535	4.843886	108.815000
72.099630	4.896735	108.860000
72.129650	4.970562	108.907000
72.160130	4.948394	108.953000
72.190887	4.927835	108.999000
72.222366	5.004909	109.046000
72.325209	5.040118	109.092000
72.357157	5.122013	109.247000
72.388052	5.106510	109.293000
72.418855	5.080783	109.340000
72.447952	5.146622	109.385000
72.556926	5.198204	109.432000
72.588267	5.273105	109.594000
72.618548	5.245436	109.641000
72.649143	5.229075	109.686000
72.679854	5.322602	109.733000
72.711541	5.386891	109.779000
72.742497	5.384068	109.826000
72.773508	5.444616	109.872000
72.804280	5.573110	109.918000
72.835244	5.611401	109.964000
72.865771	5.599314	110.010000
72.895598	5.660983	110.057000
72.926724	5.752328	110.102000
72.957534	5.746818	110.149000
73.432564	6.035597	110.195000
73.463605	6.471534	110.907000
73.493271	6.581691	110.952000
73.523966	6.596748	110.999000
73.555299	6.577288	111.046000
73.586548	6.649042	111.092000
73.617174	6.741063	111.138000
73.648776	6.724036	111.185000
73.679518	6.726770	111.231000
73.786986	6.879390	111.277000
73.817858	6.972525	111.438000
73.848154	7.060239	111.484000
73.879049	7.055435	111.530000
73.909146	7.087270	111.577000
74.023890	7.208587	111.623000
74.055500	7.413176	111.794000
74.086388	7.459766	111.841000
74.117467	7.455737	111.887000
74.148285	7.538445	111.934000
74.178889	7.651836	111.980000
74.208816	7.663223	112.026000
74.239903	7.666320	112.073000
74.270929	7.774900	112.118000
74.301609	7.856480	112.165000
74.332827	7.845616	112.212000
74.363929	7.885893	112.258000
74.394963	8.012447	112.304000
74.426127	8.065151	112.350000
74.528186	8.318702	112.396000
74.559212	8.326438	112.551000
74.590345	8.371960	112.598000
74.621294	8.511176	112.644000
74.652735	8.569127	112.690000
74.757852	8.551493	112.736000
74.789032	8.687815	112.894000
74.819789	8.706097	112.940000
74.850369	8.817591	112.986000
74.880450	8.849078	113.033000
74.910991	8.826639	113.079000
74.941710	8.901118	113.125000
74.973304	9.011627	113.172000
75.004768	9.016067	113.218000
75.036055	9.013923	113.265000
75.066896	9.129277	113.310000
75.098990	9.213614	113.358000
75.129409	9.199857	113.404000
75.159743	9.232781	113.450000
75.262947	9.416444	113.497000
75.293551	9.527836	113.651000
75.324407	9.639755	113.697000
75.355541	9.645689	113.743000
75.387120	9.672848	113.790000
75.492337	9.805123	113.836000
75.522064	10.055174	113.994000
75.552814	10.182944	114.041000
75.583716	10.198047	114.087000
75.614427	10.241811	114.132000
75.645153	10.402502	114.178000
75.676579	10.486598	114.225000
75.708211	10.481356	114.271000
75.738676	10.554197	114.317000
75.768719	10.695580	114.364000
75.799191	10.725533	114.410000
75.829272	10.718356	114.455000
75.860252	10.836381	114.501000
75.890970	10.966340	114.547000
75.995050	11.171380	114.594000
76.025776	11.212921	114.749000
76.056172	11.206564	114.795000
76.086499	11.326448	114.841000
76.117033	11.466948	114.887000
76.225308	11.484208	114.934000
76.256003	11.794965	115.095000
76.287352	11.803260	115.141000
76.318631	11.945007	115.188000
76.349188	12.071856	115.234000
76.380898	12.077368	115.280000
76.412339	12.124801	115.327000
76.442980	12.286482	115.373000
76.472723	12.372836	115.420000
76.503949	12.362307	115.466000
76.534552	12.444192	115.512000
76.565654	12.600728	115.558000
76.595858	12.640113	115.605000
76.627844	12.645385	115.651000
77.100185	13.297533	115.698000
77.131195	14.225159	116.407000
77.161944	14.300793	116.453000
77.192740	14.329442	116.500000
77.224488	14.493286	116.546000
77.255613	14.655777	116.593000
77.287169	14.680396	116.639000
77.317411	14.731753	116.686000
77.349113	14.920171	116.732000
77.455598	15.261299	116.779000
77.485287	15.439219	116.939000
77.515683	15.487858	116.984000
77.545648	15.588911	117.030000
77.577881	15.805770	117.076000
77.693071	15.908949	117.123000
77.723497	16.286028	117.295000
77.754308	16.279576	117.341000
77.783613	16.401213	117.387000
77.815253	16.582485	117.433000
77.846302	16.625110	117.480000
77.877551	16.652950	117.526000
77.907946	16.834660	117.572000
77.939525	16.984173	117.618000
77.970697	17.005053	117.665000
78.001754	17.097914	117.711000
78.032818	17.309015	117.758000
78.063145	17.412653	117.804000
78.093756	17.442888	117.850000
78.196998	17.901820	117.897000
78.227978	18.015590	118.051000
78.257989	18.250785	118.098000
78.290521	18.362222	118.144000
78.321332	18.395330	118.190000
78.426103	18.577578	118.237000
78.456376	18.989633	118.395000
78.486150	19.219929	118.441000
78.517982	19.315392	118.487000
78.548885	19.335131	118.532000
78.579580	19.506530	118.578000
78.609484	19.724714	118.623000
78.640841	19.777201	118.670000
78.670483	19.810723	118.715000
78.700595	20.013873	118.762000
78.731352	20.177421	118.808000
78.762700	20.172629	118.854000
78.793895	20.227111	118.900000
78.824767	20.448460	118.946000
78.928532	20.768063	118.992000
78.958359	20.958354	119.147000
78.989086	20.976137	119.193000
79.019942	21.039617	119.240000
79.051037	21.273832	119.286000
79.158875	21.419741	119.331000
79.190054	21.855319	119.494000
79.221364	21.873408	119.541000
79.252513	21.977320	119.587000
79.283185	22.224090	119.633000
79.314495	22.342024	119.680000
79.345606	22.356803	119.726000
79.376071	22.535724	119.772000
79.406382	22.774609	119.819000
79.437208	22.831294	119.865000
79.468011	22.872199	119.912000
79.499513	23.104711	119.958000
79.530508	23.299050	120.004000
79.561196	23.326771	120.051000
79.665107	23.911356	120.097000
79.694880	23.980678	120.252000
79.725645	24.247400	120.298000
79.756202	24.478875	120.344000
79.787612	24.526086	120.390000
79.892568	24.637089	120.436000
79.923471	25.153775	120.594000
79.954988	25.433612	120.640000
79.986229	25.660616	120.687000
80.016610	25.705744	120.733000
80.046490	25.849988	120.779000
80.077078	26.153214	120.825000
80.108665	26.300153	120.872000
80.139652	26.344473	120.918000
80.170747	26.574140	120.965000
80.201927	26.871027	121.011000
80.233006	26.969136	121.057000
80.263733	27.046453	121.103000
80.294067	27.338724	121.149000
80.767406	28.947817	121.195000
80.799469	30.594650	121.907000
80.830587	30.714295	121.954000
80.861067	31.057395	122.000000
80.892239	31.326461	122.046000
80.923011	31.410601	122.092000
80.953192	31.612218	122.139000
80.983234	31.967465	122.185000
81.015267	32.135420	122.232000
81.122028	32.822380	122.278000
81.152993	32.890086	122.438000
81.183680	33.163684	122.485000
81.215021	33.534611	122.532000
81.246623	33.700697	122.578000
81.359509	33.851113	122.624000
81.390657	34.871814	122.795000
81.420876	35.282797	122.841000
81.452402	35.603723	122.888000
81.483412	35.722161	122.933000
81.514492	35.977053	122.980000
81.545517	36.384195	123.026000
81.576320	36.593734	123.073000
81.607876	36.717010	123.119000
81.638310	37.065946	123.164000
81.669175	37.426243	123.212000
81.698572	37.550917	123.258000
81.730696	37.714745	123.305000
81.761200	38.106556	123.351000
81.865065	38.879302	123.397000
81.896382	39.260668	123.552000
81.927101	39.425271	123.597000
81.958419	39.671527	123.645000
81.988469	40.146979	123.691000
82.093371	40.469157	123.738000
82.123874	41.563211	123.895000
82.154954	41.726686	123.941000
82.184919	41.992414	123.987000
82.216598	42.435058	124.032000
82.248362	42.698474	124.079000
82.278926	42.818637	124.126000
82.308700	43.163921	124.172000
82.339533	43.580802	124.218000
82.370951	43.753454	124.265000
82.401739	43.945946	124.311000
82.433018	44.384629	124.358000
82.463713	44.732896	124.404000
82.495262	44.867742	124.450000
82.597682	45.900192	124.495000
82.628063	46.098034	124.651000
82.658658	46.547390	124.696000
82.689684	46.899393	124.743000
82.721163	47.044150	124.790000
82.827118	47.375468	124.836000
82.858351	48.467635	124.995000
