Sample	2mm tape 2
date	07/01/2025
	
Temperature (K)	77.00
Angle (deg.)	0.000000
field / T	0.020000
	
		
Approx. trace time (s)	60.0	
		
Current / A	V1  -sample/ uV	time/s
0.001511	-2.363199	0.000000
0.001655	-2.361153	0.047000
0.001571	-2.313995	0.093000
0.001487	-2.352935	0.139000
0.001339	-2.391460	0.186000
0.001613	-2.422704	0.231000
0.001655	-2.446579	0.390000
0.001595	-2.468391	0.437000
0.001870	-2.429041	0.484000
0.001565	-2.451477	0.530000
0.001321	-2.476633	0.576000
0.013815	-2.443987	0.752000
0.042506	-2.459378	0.798000
0.073398	-2.461240	0.844000
0.104534	-2.398353	0.891000
0.136153	-2.407228	0.937000
0.167046	-2.409217	0.983000
0.197942	-2.399784	1.030000
0.229128	-2.330497	1.075000
0.259865	-2.304050	1.122000
0.290741	-2.323169	1.168000
0.321418	-2.327486	1.213000
0.351993	-2.291828	1.260000
0.382412	-2.244322	1.306000
0.857995	-2.281901	1.353000
0.889308	-2.308672	2.065000
0.919050	-2.265189	2.111000
0.950009	-2.270458	2.157000
0.980002	-2.260354	2.203000
1.011022	-2.233748	2.249000
1.041860	-2.157029	2.295000
1.073088	-2.167185	2.341000
1.103914	-2.164223	2.387000
1.208787	-2.180470	2.434000
1.238857	-2.195517	2.591000
1.268904	-2.190425	2.636000
1.300572	-2.118955	2.683000
1.330838	-2.117782	2.728000
1.448679	-2.159821	2.775000
1.480239	-2.220819	2.953000
1.511389	-2.257667	2.999000
1.543051	-2.287359	3.046000
1.573510	-2.246735	3.092000
1.604885	-2.272324	3.138000
1.635821	-2.310800	3.185000
1.665558	-2.339453	3.230000
1.695572	-2.310314	3.276000
1.726479	-2.290191	3.323000
1.758551	-2.320768	3.369000
1.789555	-2.330535	3.416000
1.821297	-2.319815	3.462000
1.852034	-2.263542	3.509000
1.954852	-2.262249	3.555000
1.985150	-2.196303	3.710000
2.015661	-2.212029	3.756000
2.046237	-2.208031	3.802000
2.077423	-2.195285	3.847000
2.183406	-2.113403	3.894000
2.214419	-2.067977	4.052000
2.245577	-2.022903	4.099000
2.276391	-2.049222	4.145000
2.307037	-2.086550	4.191000
2.337311	-2.128023	4.238000
2.367087	-2.113732	4.283000
2.398249	-2.097948	4.329000
2.428660	-2.129049	4.375000
2.460797	-2.139064	4.422000
2.492046	-2.126860	4.468000
2.523110	-2.063014	4.515000
2.553440	-2.075117	4.562000
2.585205	-2.081833	4.608000
2.687540	-2.042781	4.654000
2.718655	-2.052758	4.809000
2.749999	-2.053295	4.855000
2.780531	-1.994376	4.902000
2.812349	-2.003875	4.949000
2.916874	-2.045129	4.995000
2.948470	-2.126661	5.153000
2.978897	-2.180684	5.199000
3.008740	-2.223590	5.244000
3.039069	-2.208267	5.291000
3.070981	-2.189984	5.338000
3.101661	-2.211214	5.384000
3.132898	-2.207896	5.430000
3.164275	-2.189625	5.477000
3.195088	-2.152217	5.522000
3.226125	-2.184060	5.568000
3.256093	-2.191412	5.615000
3.286905	-2.187207	5.661000
3.317253	-2.122102	5.708000
3.421152	-2.196221	5.754000
3.452293	-2.171544	5.909000
3.483066	-2.216059	5.955000
3.513788	-2.270384	6.000000
3.544069	-2.310200	6.046000
3.650846	-2.297814	6.093000
3.680964	-2.349763	6.252000
3.711489	-2.294233	6.299000
3.741791	-2.271148	6.345000
3.773840	-2.300443	6.391000
3.804625	-2.313327	6.436000
3.836269	-2.292675	6.484000
3.866559	-2.238605	6.530000
3.898055	-2.267022	6.577000
3.928939	-2.294934	6.622000
3.958239	-2.314579	6.668000
3.988857	-2.272209	6.714000
4.020224	-2.293640	6.761000
4.051117	-2.321545	6.807000
4.526206	-2.045921	6.853000
4.555921	-2.195485	7.565000
4.587624	-2.231073	7.611000
4.618028	-2.241327	7.658000
4.649522	-2.213545	7.704000
4.680559	-2.188197	7.750000
4.711687	-2.223437	7.796000
4.742090	-2.243405	7.843000
4.773679	-2.238718	7.889000
4.876422	-2.231073	7.936000
4.906747	-2.222324	8.090000
4.937440	-2.167774	8.137000
4.968993	-2.190583	8.183000
5.000425	-2.202145	8.230000
5.118101	-2.208836	8.276000
5.149216	-2.202866	8.453000
5.179952	-2.188731	8.499000
5.210817	-2.146226	8.544000
5.240768	-2.182363	8.591000
5.270717	-2.218793	8.637000
5.302264	-2.246873	8.682000
5.333133	-2.210044	8.729000
5.363936	-2.219460	8.775000
5.394496	-2.231348	8.821000
5.425901	-2.224181	8.867000
5.457094	-2.176344	8.914000
5.487601	-2.152500	8.960000
5.517591	-2.151421	9.007000
5.620564	-2.086159	9.053000
5.650956	-2.123368	9.207000
5.682390	-2.128657	9.254000
5.713994	-2.098254	9.300000
5.745069	-2.024076	9.346000
5.851780	-2.035753	9.393000
5.882136	-1.973166	9.553000
5.913470	-2.015307	9.599000
5.943758	-2.054319	9.644000
5.974051	-2.081251	9.692000
6.004839	-2.042620	9.738000
6.036492	-2.068990	9.784000
6.067501	-2.095970	9.831000
6.098426	-2.117402	9.877000
6.129527	-2.078617	9.923000
6.160708	-2.041751	9.969000
6.191026	-2.057365	10.016000
6.221063	-2.068810	10.061000
6.251499	-2.061321	10.107000
6.354779	-2.112863	10.153000
6.386530	-2.127579	10.309000
6.417777	-2.095548	10.355000
6.448251	-2.142641	10.401000
6.477671	-2.186492	10.447000
6.584199	-2.221572	10.493000
6.615014	-2.283765	10.653000
6.645549	-2.305542	10.699000
6.676794	-2.275833	10.745000
6.707536	-2.311014	10.791000
6.738900	-2.356207	10.837000
6.769789	-2.390142	10.883000
6.800947	-2.377978	10.929000
6.831101	-2.372973	10.976000
6.862287	-2.416110	11.023000
6.893186	-2.443720	11.069000
6.923883	-2.452901	11.115000
6.954164	-2.410313	11.162000
6.985774	-2.431437	11.208000
7.090129	-2.330751	11.254000
7.121464	-2.337112	11.410000
7.151955	-2.350335	11.457000
7.182210	-2.355192	11.503000
7.213736	-2.294075	11.550000
7.317474	-2.284456	11.596000
7.348775	-2.238319	11.752000
7.379060	-2.219188	11.798000
7.410108	-2.235147	11.843000
7.440397	-2.247956	11.888000
7.471463	-2.227523	11.935000
7.501711	-2.188818	11.982000
7.531763	-2.206579	12.028000
7.563016	-2.215636	12.074000
7.593882	-2.218998	12.120000
7.624900	-2.163006	12.167000
7.655471	-2.185395	12.213000
7.686896	-2.216485	12.259000
7.717650	-2.236801	12.305000
8.192808	-2.153547	12.351000
8.224172	-2.205495	13.065000
8.254590	-2.235909	13.111000
8.286358	-2.201350	13.158000
8.317240	-2.182847	13.204000
8.348931	-2.207076	13.250000
8.378200	-2.215845	13.297000
8.410130	-2.193049	13.343000
8.440445	-2.134421	13.389000
8.543570	-2.139796	13.436000
8.575300	-2.086688	13.591000
8.605329	-2.099640	13.637000
8.637252	-2.105818	13.683000
8.667804	-2.101916	13.730000
8.785836	-2.042873	13.776000
8.817154	-2.067562	13.953000
8.846669	-2.041986	13.999000
8.878299	-2.075752	14.046000
8.908405	-2.094765	14.092000
8.939441	-2.098160	14.138000
8.969903	-2.047538	14.184000
9.001195	-2.074080	14.231000
9.032544	-2.097408	14.276000
9.063485	-2.119433	14.323000
9.094076	-2.087229	14.368000
9.125107	-2.097461	14.415000
9.155599	-2.137692	14.462000
9.186182	-2.157979	14.508000
9.290180	-2.158584	14.554000
9.320720	-2.178491	14.709000
9.352549	-2.168337	14.756000
9.383771	-2.129049	14.802000
9.414049	-2.160561	14.849000
9.518725	-2.181381	14.895000
9.548407	-2.164878	15.052000
9.580298	-2.177753	15.099000
9.611104	-2.171014	15.145000
9.642131	-2.115065	15.191000
9.672587	-2.129346	15.238000
9.704388	-2.137395	15.284000
9.735369	-2.134444	15.331000
9.765915	-2.073794	15.375000
9.795694	-2.064263	15.423000
9.826880	-2.092988	15.469000
9.857812	-2.105460	15.515000
9.888431	-2.087780	15.562000
9.919419	-2.046757	15.608000
10.023459	-2.067099	15.655000
10.054698	-2.023315	15.809000
10.085539	-2.045889	15.855000
10.114923	-2.058763	15.901000
10.145547	-2.059630	15.948000
10.252123	-2.002868	15.994000
10.282211	-2.025059	16.152000
10.313991	-1.970558	16.198000
10.344812	-1.984651	16.245000
10.375750	-1.995271	16.291000
10.405751	-1.989602	16.336000
10.437079	-1.929308	16.383000
10.467269	-1.895566	16.430000
10.497880	-1.914112	16.475000
10.528601	-1.912999	16.522000
10.560382	-1.883328	16.568000
10.591198	-1.805371	16.615000
10.622119	-1.813684	16.661000
10.653550	-1.830450	16.708000
10.755309	-1.757306	16.754000
10.786555	-1.770600	16.908000
10.817611	-1.777005	16.955000
10.849281	-1.727217	17.002000
10.880238	-1.759346	17.048000
10.985491	-1.803981	17.094000
11.016784	-1.844606	17.253000
11.048272	-1.880761	17.299000
11.079114	-1.905523	17.346000
11.107664	-1.874886	17.391000
11.139493	-1.869585	17.437000
11.169876	-1.903422	17.483000
11.201394	-1.923178	17.529000
11.231483	-1.923570	17.576000
11.263442	-1.900613	17.622000
11.294366	-1.927365	17.668000
11.325613	-1.933453	17.714000
11.355502	-1.927780	17.761000
11.385907	-1.872713	17.806000
11.861228	-1.894749	17.853000
11.892314	-2.024447	18.565000
11.923832	-1.982588	18.612000
11.954062	-1.999937	18.658000
11.984872	-2.036612	18.704000
12.015057	-2.059332	18.750000
12.045802	-2.034686	18.797000
12.076484	-2.015709	18.842000
12.108282	-2.049559	18.889000
12.212212	-2.036485	18.935000
12.243020	-2.083068	19.091000
12.274343	-2.112144	19.137000
12.303337	-2.119082	19.183000
12.335197	-2.080140	19.230000
12.453110	-2.113021	19.276000
12.482986	-2.049778	19.453000
12.514700	-2.083503	19.499000
12.545334	-2.105321	19.545000
12.576733	-2.101279	19.592000
12.608024	-2.079380	19.638000
12.638192	-2.134314	19.684000
12.669973	-2.184417	19.731000
12.700706	-2.225273	19.777000
12.730966	-2.209111	19.824000
12.759948	-2.261697	19.869000
12.792249	-2.317227	19.916000
12.823153	-2.361138	19.962000
12.854227	-2.344067	20.007000
12.957114	-2.418207	20.053000
12.987874	-2.384195	20.208000
13.017650	-2.384354	20.254000
13.048304	-2.431335	20.301000
13.079946	-2.459219	20.347000
13.185652	-2.458310	20.393000
13.217305	-2.492203	20.553000
13.247786	-2.478863	20.599000
13.279072	-2.450174	20.646000
13.310165	-2.471478	20.692000
13.341534	-2.487855	20.738000
13.371275	-2.489281	20.784000
13.401713	-2.422154	20.831000
13.432257	-2.430171	20.876000
13.463157	-2.434825	20.922000
13.494473	-2.424226	20.968000
13.525630	-2.343252	21.015000
13.556921	-2.308291	21.061000
13.586848	-2.322903	21.107000
13.689616	-2.153610	21.153000
13.719805	-2.154848	21.308000
13.751382	-2.153705	21.355000
13.782580	-2.130369	21.401000
13.813639	-2.082828	21.447000
13.920094	-2.116904	21.493000
13.950775	-2.077155	21.653000
13.982035	-2.105689	21.699000
14.013197	-2.127556	21.745000
14.043702	-2.135013	21.792000
14.073186	-2.087998	21.838000
14.104600	-2.104358	21.885000
14.135740	-2.113265	21.931000
14.166765	-2.109753	21.977000
14.197314	-2.038684	22.023000
14.228886	-2.000645	22.069000
14.260334	-1.990997	22.116000
14.291143	-1.969910	22.162000
14.320948	-1.931024	22.209000
14.423625	-1.952859	22.255000
14.454963	-1.957090	22.409000
14.486082	-1.933517	22.454000
14.517212	-1.985223	22.502000
14.547306	-2.027081	22.548000
14.653639	-2.053546	22.593000
14.684279	-2.034030	22.752000
14.714780	-2.024510	22.799000
14.745696	-1.957886	22.846000
14.776550	-1.965435	22.892000
14.807551	-1.978769	22.938000
14.838594	-1.984778	22.985000
14.869640	-1.939774	23.031000
14.900488	-1.925001	23.077000
14.932045	-1.956051	23.124000
14.963163	-1.974237	23.170000
14.993559	-1.958035	23.217000
15.024218	-1.931301	23.263000
15.055451	-1.970886	23.309000
15.529448	-1.882224	23.355000
15.560952	-1.941025	24.065000
15.590672	-1.980769	24.112000
15.621107	-2.008333	24.158000
15.652290	-2.025004	24.205000
15.683637	-1.980292	24.251000
15.714963	-2.001203	24.297000
15.745389	-2.016764	24.344000
15.777396	-2.024011	24.390000
15.879902	-2.010451	24.437000
15.910482	-2.019082	24.591000
15.940795	-1.970876	24.637000
15.971207	-1.947260	24.683000
16.002369	-1.967429	24.729000
16.120811	-1.978378	24.775000
16.152203	-1.955584	24.953000
16.183066	-1.962095	24.999000
16.213734	-1.904090	25.046000
16.245665	-1.893487	25.092000
16.276401	-1.925680	25.138000
16.307202	-1.948395	25.185000
16.336810	-1.943730	25.231000
16.368024	-1.917865	25.278000
16.399317	-1.954280	25.324000
16.430210	-1.971585	25.370000
16.460735	-1.977248	25.416000
16.492450	-1.921980	25.462000
16.523207	-1.927557	25.509000
16.625587	-1.841021	25.556000
16.656342	-1.851285	25.709000
16.686282	-1.849493	25.755000
16.718144	-1.847437	25.802000
16.749079	-1.813461	25.848000
16.855288	-1.808923	25.895000
16.886045	-1.875989	26.053000
16.916250	-1.886985	26.099000
16.947316	-1.923898	26.146000
16.977370	-1.936189	26.191000
17.008528	-1.914822	26.238000
17.039241	-1.873275	26.284000
17.070350	-1.900283	26.331000
17.101715	-1.906349	26.376000
17.132720	-1.895490	26.423000
17.162826	-1.832579	26.470000
17.194768	-1.842781	26.516000
17.225511	-1.852600	26.562000
17.256128	-1.858421	26.608000
17.358881	-1.789011	26.654000
17.389674	-1.786900	26.810000
17.420857	-1.724057	26.855000
17.451747	-1.689245	26.902000
17.482849	-1.706581	26.947000
17.588407	-1.699992	26.994000
17.619411	-1.626141	27.152000
17.648560	-1.628510	27.198000
17.679844	-1.612421	27.245000
17.710981	-1.585318	27.291000
17.741807	-1.622778	27.338000
17.773751	-1.647720	27.384000
17.804350	-1.652428	27.430000
17.835722	-1.594163	27.476000
17.865445	-1.612875	27.522000
17.897093	-1.637195	27.568000
17.926425	-1.643320	27.615000
17.957841	-1.581934	27.661000
17.987735	-1.556463	27.708000
18.091961	-1.582704	27.754000
18.122238	-1.578525	27.907000
18.153425	-1.614639	27.954000
18.183433	-1.626561	28.000000
18.213784	-1.605828	28.046000
18.321078	-1.563633	28.092000
18.351508	-1.515227	28.253000
18.383368	-1.443544	28.299000
18.414367	-1.436227	28.345000
18.445266	-1.417026	28.392000
18.476351	-1.382754	28.438000
18.507148	-1.297779	28.484000
18.538356	-1.289031	28.530000
18.568414	-1.274538	28.577000
18.598589	-1.253403	28.622000
18.629740	-1.174813	28.669000
18.661186	-1.143237	28.716000
18.692033	-1.146685	28.762000
18.723566	-1.139914	28.809000
19.196556	-1.178240	28.853000
19.227032	-1.180588	29.565000
19.258189	-1.186204	29.611000
19.289474	-1.144294	29.658000
19.320371	-1.094985	29.704000
19.351466	-1.129062	29.750000
19.382851	-1.161008	29.796000
19.411931	-1.176591	29.842000
19.443091	-1.121794	29.887000
19.546920	-1.127847	29.935000
19.578366	-1.096216	30.091000
19.609843	-1.137144	30.137000
19.640391	-1.174919	30.184000
19.671194	-1.202698	30.230000
19.789250	-1.178887	30.276000
19.820441	-1.285581	30.453000
19.851820	-1.253826	30.500000
19.881943	-1.295937	30.546000
19.912819	-1.329421	30.593000
19.943342	-1.345916	30.638000
19.974333	-1.287538	30.686000
20.004469	-1.268160	30.731000
20.036310	-1.295292	30.777000
20.067720	-1.317613	30.824000
20.098765	-1.285878	30.870000
20.129297	-1.241057	30.917000
20.160689	-1.255093	30.963000
20.190534	-1.251550	31.008000
20.293150	-1.152598	31.055000
20.324305	-1.160150	31.210000
20.355549	-1.154183	31.256000
20.386754	-1.099852	31.302000
20.417365	-1.128353	31.348000
20.522928	-1.159940	31.395000
20.553869	-1.195113	31.553000
20.584240	-1.232721	31.600000
20.614630	-1.259062	31.646000
20.645911	-1.213254	31.692000
20.677060	-1.208124	31.739000
20.708157	-1.230511	31.785000
20.738758	-1.238804	31.832000
20.770251	-1.179456	31.878000
20.801415	-1.120102	31.924000
20.831449	-1.115787	31.970000
20.861647	-1.096289	32.016000
20.892535	-1.066184	32.062000
20.923270	-0.998184	32.109000
21.027114	-1.007024	32.154000
21.058190	-0.962066	32.310000
21.088822	-1.003036	32.356000
21.120685	-1.039462	32.403000
21.151045	-1.067244	32.449000
21.255065	-1.037257	32.495000
21.286506	-1.142973	32.653000
21.316928	-1.095134	32.699000
21.348903	-1.113711	32.746000
21.379867	-1.139767	32.792000
21.411262	-1.142962	32.839000
21.441391	-1.079142	32.885000
21.473018	-1.033927	32.931000
21.503510	-1.049059	32.977000
21.533170	-1.065060	33.024000
21.563135	-1.069494	33.070000
21.595093	-1.049165	33.116000
21.625863	-1.103405	33.162000
21.656967	-1.151381	33.208000
21.760589	-1.212007	33.255000
21.790299	-1.226330	33.409000
21.821960	-1.218185	33.456000
21.852519	-1.157444	33.502000
21.883614	-1.172698	33.549000
21.989198	-1.203533	33.595000
22.020424	-1.224901	33.753000
22.051490	-1.261769	33.799000
22.082416	-1.280196	33.846000
22.113981	-1.230766	33.892000
22.144172	-1.216671	33.939000
22.175341	-1.251974	33.985000
22.206179	-1.257189	34.031000
22.236669	-1.223536	34.078000
22.267067	-1.171121	34.125000
22.298866	-1.186724	34.171000
22.329637	-1.200962	34.217000
22.360676	-1.202348	34.264000
22.390803	-1.145491	34.310000
22.863426	-0.991589	34.355000
22.895781	-0.725180	35.065000
22.926672	-0.661808	35.112000
22.957775	-0.670058	35.158000
22.988049	-0.688051	35.204000
23.019388	-0.712283	35.251000
23.049774	-0.690229	35.297000
23.080526	-0.698193	35.344000
23.110708	-0.737438	35.390000
23.214625	-0.744929	35.437000
23.246200	-0.807768	35.591000
23.277562	-0.818250	35.638000
23.308659	-0.789791	35.684000
23.337952	-0.723158	35.730000
23.455701	-0.717659	35.777000
23.487464	-0.685850	35.952000
23.517657	-0.722016	35.999000
23.548319	-0.746715	36.045000
23.579072	-0.728131	36.092000
23.610496	-0.716347	36.138000
23.641760	-0.756809	36.184000
23.672640	-0.773606	36.230000
23.703596	-0.761495	36.276000
23.734520	-0.716347	36.323000
23.764568	-0.759230	36.369000
23.794280	-0.789199	36.414000
23.825492	-0.807651	36.461000
23.856626	-0.766402	36.507000
23.960760	-0.840580	36.554000
23.991495	-0.813575	36.708000
24.021755	-0.837461	36.755000
24.051862	-0.873955	36.801000
24.083053	-0.897241	36.848000
24.189360	-0.866700	36.894000
24.220312	-0.877004	37.053000
24.251617	-0.814696	37.100000
24.282164	-0.800118	37.145000
24.314035	-0.819023	37.192000
24.345009	-0.827877	37.239000
24.375914	-0.808475	37.285000
24.404992	-0.781835	37.331000
24.435303	-0.806434	37.376000
24.466020	-0.810042	37.421000
24.496665	-0.789430	37.468000
24.527756	-0.716251	37.514000
24.558869	-0.722483	37.560000
24.589996	-0.739564	37.605000
24.692090	-0.720608	37.651000
24.722336	-0.764603	37.807000
24.753444	-0.796048	37.853000
24.784620	-0.772357	37.900000
24.815782	-0.789907	37.946000
24.922853	-0.836880	37.992000
24.953777	-0.832212	38.152000
24.984872	-0.837588	38.198000
25.015706	-0.840676	38.246000
25.047121	-0.812157	38.291000
25.077717	-0.783782	38.338000
25.107366	-0.804214	38.384000
25.138641	-0.813564	38.431000
25.170224	-0.798955	38.477000
25.201117	-0.744473	38.524000
25.231828	-0.760985	38.570000
25.263009	-0.776949	38.616000
25.294241	-0.798163	38.662000
25.324586	-0.767302	38.708000
25.426819	-0.788153	38.755000
25.457771	-0.736084	38.910000
25.488826	-0.753212	38.955000
25.519506	-0.782459	39.000000
25.550159	-0.785433	39.046000
25.657021	-0.735048	39.092000
25.687707	-0.703038	39.253000
25.718412	-0.639052	39.299000
25.749339	-0.609180	39.346000
25.779900	-0.617706	39.392000
25.810231	-0.607970	39.438000
25.841032	-0.572818	39.484000
25.872513	-0.508774	39.531000
25.903787	-0.517500	39.577000
25.935281	-0.507914	39.624000
25.965896	-0.482761	39.669000
25.997041	-0.412296	39.716000
26.026393	-0.407132	39.762000
26.056891	-0.400416	39.808000
26.532687	-0.331314	39.854000
26.563377	-0.303368	40.566000
26.594333	-0.345924	40.612000
26.624345	-0.382093	40.658000
26.655102	-0.353931	40.704000
26.685912	-0.352427	40.751000
26.716735	-0.361421	40.796000
26.748104	-0.345181	40.843000
26.778143	-0.301971	40.889000
26.882943	-0.282550	40.934000
26.912173	-0.238184	41.091000
26.944061	-0.191558	41.137000
26.974080	-0.216085	41.184000
27.005358	-0.235014	41.230000
27.123428	-0.241441	41.276000
27.154476	-0.266705	41.453000
27.186109	-0.227941	41.500000
27.216728	-0.208069	41.546000
27.247586	-0.229967	41.592000
27.279290	-0.235046	41.639000
27.309822	-0.213668	41.684000
27.341021	-0.169342	41.731000
27.369742	-0.189618	41.778000
27.401695	-0.194527	41.824000
27.432604	-0.191155	41.870000
27.463232	-0.134099	41.915000
27.493613	-0.143935	41.962000
27.525829	-0.166426	42.009000
27.628302	-0.203444	42.055000
27.658488	-0.244059	42.209000
27.689201	-0.273231	42.255000
27.719937	-0.254719	42.301000
27.751279	-0.293382	42.348000
27.856781	-0.357380	42.394000
27.888417	-0.347385	42.553000
27.919545	-0.328925	42.599000
27.950146	-0.301516	42.644000
27.979808	-0.255184	42.691000
28.010771	-0.243083	42.737000
28.041034	-0.292261	42.783000
28.072017	-0.326343	42.830000
28.103103	-0.330870	42.875000
28.134250	-0.285417	42.921000
28.165135	-0.294217	42.968000
28.195604	-0.291667	43.014000
28.227006	-0.272881	43.060000
28.256603	-0.214229	43.106000
28.359963	-0.298892	43.152000
28.391332	-0.263530	43.308000
28.422479	-0.300946	43.354000
28.452281	-0.341302	43.400000
28.484379	-0.371835	43.446000
28.591329	-0.330597	43.492000
28.622197	-0.362204	43.653000
28.652474	-0.332998	43.699000
28.682074	-0.356344	43.746000
28.713661	-0.390801	43.792000
28.745188	-0.409198	43.839000
28.776143	-0.369878	43.885000
28.806621	-0.347658	43.931000
28.838156	-0.360512	43.978000
28.869257	-0.359062	44.024000
28.900062	-0.344677	44.070000
28.930747	-0.317088	44.116000
28.960724	-0.344782	44.163000
28.991885	-0.354862	44.209000
29.095242	-0.299655	44.254000
29.126143	-0.307853	44.409000
29.156902	-0.308139	44.456000
29.188270	-0.254635	44.502000
29.219620	-0.257163	44.549000
29.324044	-0.245278	44.595000
29.354496	-0.194018	44.753000
29.385066	-0.215597	44.799000
29.416413	-0.229128	44.846000
29.447389	-0.189978	44.892000
29.479000	-0.217994	44.939000
29.509974	-0.256379	44.985000
29.541482	-0.281110	45.032000
29.572633	-0.255067	45.078000
29.602971	-0.257163	45.125000
29.632904	-0.293774	45.171000
29.664247	-0.309661	45.217000
29.695101	-0.292368	45.264000
29.725474	-0.260938	45.310000
30.196236	-0.290768	45.356000
30.225788	-0.288165	46.065000
30.256802	-0.263022	46.110000
30.288666	-0.290566	46.158000
30.319415	-0.315647	46.204000
30.349828	-0.326501	46.249000
30.381493	-0.299537	46.296000
30.412634	-0.342907	46.342000
30.443374	-0.381608	46.389000
30.545921	-0.402648	46.434000
30.576676	-0.426396	46.591000
30.608248	-0.439842	46.638000
30.639642	-0.401824	46.684000
30.670916	-0.431878	46.730000
30.788373	-0.468679	46.777000
30.819243	-0.499494	46.953000
30.851089	-0.521530	47.000000
30.881930	-0.515083	47.046000
30.912366	-0.474957	47.092000
30.941907	-0.501796	47.138000
30.972737	-0.517086	47.185000
31.003728	-0.521584	47.231000
31.035096	-0.466235	47.277000
31.065296	-0.474447	47.324000
31.097545	-0.486262	47.370000
31.128077	-0.485402	47.416000
31.159128	-0.432256	47.462000
31.189309	-0.408657	47.509000
31.291708	-0.395084	47.555000
31.322907	-0.383978	47.708000
31.354401	-0.409684	47.755000
31.385162	-0.417913	47.801000
31.415811	-0.398599	47.847000
31.522104	-0.362363	47.894000
31.553199	-0.342749	48.053000
31.583695	-0.304784	48.100000
31.614851	-0.321023	48.146000
31.644156	-0.329063	48.192000
31.675991	-0.319436	48.238000
31.706855	-0.280149	48.284000
31.738351	-0.309324	48.331000
31.768599	-0.333866	48.377000
31.800681	-0.346941	48.424000
31.831394	-0.294854	48.470000
31.861775	-0.295996	48.516000
31.891488	-0.298871	48.562000
31.922374	-0.294217	48.609000
32.026262	-0.264491	48.654000
32.056794	-0.288103	48.810000
32.088277	-0.257945	48.856000
32.119007	-0.272606	48.902000
32.150100	-0.320652	48.948000
32.254537	-0.354079	48.995000
32.285686	-0.387278	49.153000
32.316155	-0.412888	49.199000
32.347354	-0.383617	49.246000
32.378775	-0.377471	49.292000
32.409851	-0.415131	49.339000
32.440911	-0.432033	49.385000
32.471445	-0.421150	49.431000
32.503082	-0.388208	49.477000
32.533789	-0.421837	49.524000
32.564492	-0.443448	49.570000
32.593739	-0.451276	49.616000
32.625621	-0.399602	49.663000
32.656017	-0.429929	49.709000
32.760758	-0.446031	49.755000
32.791688	-0.460082	49.910000
32.821742	-0.478828	49.956000
32.852875	-0.487576	50.003000
32.882660	-0.442381	50.049000
32.988377	-0.439567	50.095000
33.019460	-0.415036	50.253000
33.050401	-0.425393	50.299000
33.080935	-0.445544	50.345000
33.112053	-0.455740	50.392000
33.143525	-0.422272	50.438000
33.174443	-0.425287	50.484000
33.204324	-0.471140	50.531000
33.235331	-0.482550	50.576000
33.266414	-0.455297	50.623000
33.297175	-0.424398	50.670000
33.328542	-0.457148	50.716000
33.359603	-0.473706	50.763000
33.390763	-0.468817	50.809000
33.863495	-0.382613	50.855000
33.894387	-0.296058	51.566000
33.925966	-0.285987	51.611000
33.956715	-0.234038	51.658000
33.988140	-0.245182	51.704000
34.018636	-0.258433	51.750000
34.049950	-0.256730	51.797000
34.080111	-0.192289	51.843000
34.109942	-0.200783	51.889000
34.214771	-0.189267	51.935000
34.245598	-0.237622	52.091000
34.276700	-0.280868	52.137000
34.307599	-0.315965	52.184000
34.339001	-0.277102	52.230000
34.456593	-0.281374	52.277000
34.487357	-0.265983	52.453000
34.518203	-0.289922	52.500000
34.548591	-0.310105	52.546000
34.578833	-0.313076	52.592000
34.610062	-0.267656	52.639000
34.641103	-0.297823	52.684000
34.671952	-0.321203	52.730000
34.702609	-0.337440	52.776000
34.733412	-0.298237	52.823000
34.764826	-0.300235	52.869000
34.794976	-0.324078	52.915000
34.825383	-0.323541	52.962000
34.856309	-0.269145	53.008000
34.960612	-0.238077	53.054000
34.991384	-0.183827	53.210000
35.023236	-0.157858	53.256000
35.054039	-0.173965	53.303000
35.084608	-0.177868	53.349000
35.189468	-0.141910	53.396000
35.219410	-0.140774	53.553000
35.250640	-0.094226	53.599000
35.281777	-0.069255	53.646000
35.312622	-0.095669	53.691000
35.343713	-0.109317	53.737000
35.374347	-0.096751	53.783000
35.404927	-0.053020	53.829000
35.435354	-0.068057	53.876000
35.466126	-0.090993	53.922000
35.496891	-0.122645	53.968000
35.527509	-0.111140	54.015000
35.558831	-0.158155	54.061000
35.589734	-0.201738	54.107000
35.692945	-0.273559	54.154000
35.724551	-0.322302	54.309000
35.754605	-0.361799	54.355000
35.785258	-0.343311	54.402000
35.816042	-0.373643	54.447000
35.921924	-0.425900	54.494000
35.953707	-0.471054	54.652000
35.984932	-0.510427	54.699000
36.016285	-0.548910	54.745000
36.046761	-0.533119	54.793000
36.078570	-0.567689	54.839000
36.109596	-0.621002	54.886000
36.140280	-0.651352	54.932000
36.169374	-0.624194	54.979000
36.201137	-0.610579	55.025000
36.231790	-0.637205	55.071000
36.263381	-0.640674	55.117000
36.294395	-0.608352	55.164000
36.325371	-0.556979	55.210000
36.428325	-0.534074	55.256000
36.457718	-0.488976	55.410000
36.489098	-0.509644	55.456000
36.519578	-0.521997	55.502000
36.551149	-0.525378	55.549000
36.656551	-0.493854	55.595000
36.687277	-0.581747	55.753000
36.718214	-0.542175	55.799000
36.748829	-0.571831	55.845000
36.780220	-0.595395	55.892000
36.810977	-0.600218	55.939000
36.841722	-0.553449	55.985000
36.872198	-0.571476	56.032000
36.904396	-0.588479	56.079000
36.935191	-0.598130	56.125000
36.966305	-0.551179	56.171000
36.996098	-0.554583	56.217000
37.028169	-0.581885	56.263000
37.058726	-0.593359	56.310000
37.531850	-0.481860	56.356000
37.562895	-0.413999	57.066000
37.593156	-0.415584	57.112000
37.624593	-0.356120	57.158000
37.655385	-0.356767	57.204000
37.686034	-0.369401	57.251000
37.715823	-0.375377	57.297000
37.747306	-0.327888	57.343000
37.778570	-0.314021	57.390000
37.882723	-0.305833	57.436000
37.914010	-0.275197	57.592000
37.944029	-0.305071	57.638000
37.975900	-0.328670	57.685000
38.006004	-0.309398	57.731000
38.123196	-0.293774	57.777000
38.153949	-0.288484	57.953000
38.184490	-0.298408	58.000000
38.215228	-0.308720	58.045000
38.246700	-0.322103	58.091000
38.277718	-0.286369	58.138000
38.308628	-0.299835	58.183000
38.339604	-0.336150	58.230000
38.370453	-0.356524	58.276000
38.399973	-0.328585	58.323000
38.430584	-0.295202	58.369000
38.462240	-0.316073	58.415000
38.493392	-0.316971	58.461000
38.524264	-0.289711	58.507000
38.628006	-0.191314	58.554000
38.657953	-0.169459	58.709000
38.689420	-0.145526	58.756000
38.720346	-0.191792	58.802000
38.750880	-0.220783	58.849000
38.856966	-0.227814	58.894000
38.887296	-0.254190	59.053000
38.919640	-0.253186	59.100000
38.950231	-0.226467	59.146000
38.981011	-0.255734	59.193000
39.010846	-0.267783	59.238000
39.042272	-0.273273	59.285000
39.073171	-0.227040	59.331000
39.089252	-0.270078	59.378000
39.134485	-0.284930	59.424000
39.165933	-0.311736	59.470000
39.197028	-0.287395	59.516000
39.227862	-0.309303	59.562000
39.259049	-0.356121	59.609000
39.361281	-0.381471	59.656000
39.392595	-0.387975	59.810000
39.423206	-0.385067	59.857000
39.453966	-0.325508	59.903000
39.484831	-0.302935	59.949000
39.590651	-0.317784	59.996000
39.621543	-0.232139	60.153000
39.652837	-0.247781	60.200000
39.682811	-0.254886	60.245000
39.712814	-0.212364	60.292000
39.743794	-0.185217	60.338000
39.775300	-0.210571	60.384000
39.806291	-0.221855	60.431000
39.837033	-0.203265	60.477000
39.868347	-0.159333	60.523000
39.899895	-0.178261	60.570000
39.930206	-0.185408	60.616000
39.960679	-0.173765	60.662000
39.991755	-0.110271	60.709000
40.094486	-0.114852	60.755000
40.126323	-0.059573	60.910000
40.156738	-0.077505	60.957000
40.187882	-0.095531	61.003000
40.219047	-0.106952	61.049000
40.324137	-0.066891	61.096000
40.355351	-0.122137	61.253000
40.386000	-0.061397	61.300000
40.416169	-0.075776	61.346000
40.446304	-0.104047	61.392000
40.478225	-0.126686	61.438000
40.509224	-0.102720	61.485000
40.540626	-0.108332	61.531000
40.571241	-0.152874	61.577000
40.602401	-0.181686	61.624000
40.632274	-0.175801	61.669000
40.662370	-0.153850	61.716000
40.693473	-0.186511	61.762000
40.725010	-0.200932	61.809000
41.199786	-0.207114	61.855000
41.230443	-0.401146	62.566000
41.260312	-0.421637	62.612000
41.291069	-0.384931	62.658000
41.322433	-0.346898	62.705000
41.353693	-0.355646	62.751000
41.383713	-0.347066	62.798000
41.415549	-0.303907	62.843000
41.446913	-0.240083	62.890000
41.549668	-0.190571	62.936000
41.580106	-0.144422	63.091000
41.610928	-0.172291	63.137000
41.641792	-0.195757	63.184000
41.673087	-0.197878	63.230000
41.791005	-0.154040	63.276000
41.821577	-0.259129	63.453000
41.852327	-0.289444	63.500000
41.884063	-0.354355	63.546000
41.915488	-0.406446	63.592000
41.945930	-0.423202	63.638000
41.975677	-0.439980	63.685000
42.007079	-0.507924	63.731000
42.037137	-0.559820	63.777000
42.068597	-0.578321	63.823000
42.098743	-0.562567	63.870000
42.131059	-0.609222	63.916000
42.161835	-0.645316	63.962000
42.193095	-0.662145	64.008000
42.295139	-0.650482	64.055000
42.325946	-0.623654	64.209000
42.357675	-0.565655	64.256000
42.388451	-0.592404	64.303000
42.419592	-0.626633	64.349000
42.525075	-0.653388	64.395000
42.556047	-0.674352	64.553000
42.586865	-0.667152	64.599000
42.618160	-0.610781	64.646000
42.648044	-0.625159	64.692000
42.678425	-0.636909	64.739000
42.709727	-0.641778	64.785000
42.740661	-0.596084	64.831000
42.772009	-0.618107	64.878000
42.802355	-0.655254	64.924000
42.834038	-0.683376	64.970000
42.864710	-0.651680	65.017000
42.896047	-0.643059	65.063000
42.925955	-0.685957	65.109000
43.028875	-0.691689	65.156000
43.060085	-0.732320	65.310000
43.091484	-0.760510	65.357000
43.122613	-0.740116	65.403000
43.153504	-0.737957	65.449000
43.258810	-0.770285	65.496000
43.287688	-0.732086	65.654000
43.319790	-0.788141	65.700000
43.350339	-0.824152	65.746000
43.381465	-0.790309	65.792000
43.412087	-0.768189	65.839000
43.443420	-0.789726	65.885000
43.474623	-0.798649	65.932000
43.505645	-0.773427	65.978000
43.537289	-0.736476	66.024000
43.567631	-0.765206	66.071000
43.597873	-0.777330	66.116000
43.627962	-0.765745	66.163000
43.658799	-0.721583	66.209000
43.761804	-0.751031	66.255000
43.793717	-0.709025	66.410000
43.825150	-0.734064	66.456000
43.854927	-0.748472	66.502000
43.884704	-0.742283	66.548000
43.990552	-0.692524	66.595000
44.021504	-0.684528	66.753000
44.052584	-0.624024	66.799000
44.083675	-0.631946	66.845000
44.113971	-0.631978	66.892000
44.145492	-0.624501	66.938000
44.176787	-0.570584	66.984000
44.207156	-0.589603	67.030000
44.236764	-0.612105	67.076000
44.267655	-0.625032	67.122000
44.298939	-0.580378	67.168000
44.330018	-0.587600	67.215000
44.360525	-0.609540	67.261000
44.391893	-0.597143	67.308000
44.865728	-0.571646	67.354000
44.896642	-0.727653	68.066000
44.927830	-0.716887	68.112000
44.958379	-0.649867	68.158000
44.990242	-0.628054	68.204000
45.020772	-0.629973	68.250000
45.052409	-0.646156	68.297000
45.083500	-0.610854	68.343000
45.114764	-0.611003	68.389000
45.217730	-0.593081	68.436000
45.248479	-0.599551	68.591000
45.279271	-0.609508	68.637000
45.309955	-0.595384	68.683000
45.341449	-0.521626	68.730000
45.459870	-0.478307	68.776000
45.490842	-0.364811	68.954000
45.521953	-0.370353	69.000000
45.551730	-0.367739	69.046000
45.582875	-0.337462	69.093000
45.612933	-0.260060	69.139000
45.644266	-0.255978	69.185000
45.674892	-0.263370	69.231000
45.706878	-0.276066	69.278000
45.737777	-0.236658	69.324000
45.768903	-0.248216	69.371000
45.799883	-0.276445	69.417000
45.831661	-0.287754	69.464000
45.861792	-0.246700	69.511000
45.964424	-0.252728	69.557000
45.995461	-0.192702	69.711000
46.026053	-0.179786	69.758000
46.057793	-0.203975	69.804000
46.088900	-0.214334	69.851000
46.193675	-0.174982	69.897000
46.223618	-0.213656	70.054000
46.253064	-0.183307	70.100000
46.284663	-0.185003	70.146000
46.315688	-0.220623	70.192000
46.346764	-0.242075	70.238000
46.377098	-0.224112	70.284000
46.409500	-0.208704	70.331000
46.440118	-0.254645	70.377000
46.471021	-0.289933	70.423000
46.500218	-0.283436	70.470000
46.531179	-0.239657	70.516000
46.562385	-0.259592	70.562000
46.593165	-0.284147	70.608000
46.697560	-0.366734	70.654000
46.727568	-0.421497	70.809000
46.758924	-0.447859	70.855000
46.789012	-0.438784	70.901000
46.819400	-0.501509	70.947000
46.925386	-0.546450	70.994000
46.956377	-0.529780	71.154000
46.987645	-0.532431	71.200000
47.018383	-0.515856	71.246000
47.049750	-0.468477	71.292000
47.080404	-0.489240	71.338000
47.111687	-0.500841	71.385000
47.142751	-0.491021	71.431000
47.173166	-0.433663	71.478000
47.202628	-0.457768	71.524000
47.234572	-0.488794	71.570000
47.265183	-0.505464	71.616000
47.296739	-0.458872	71.662000
47.326935	-0.451382	71.709000
47.430977	-0.397804	71.756000
47.460458	-0.396810	71.910000
47.490700	-0.416062	71.954000
47.521346	-0.408148	72.000000
47.552229	-0.349722	72.046000
47.659425	-0.334976	72.091000
47.689825	-0.383112	72.254000
47.721995	-0.427274	72.300000
47.753547	-0.487629	72.347000
47.784200	-0.533046	72.393000
47.813786	-0.518837	72.439000
47.844389	-0.522443	72.485000
47.875495	-0.558920	72.531000
47.906279	-0.578619	72.578000
47.937485	-0.561603	72.623000
47.968384	-0.535645	72.670000
47.999910	-0.567658	72.717000
48.029894	-0.587451	72.763000
48.062130	-0.575691	72.809000
48.534509	-0.478604	72.856000
48.565347	-0.500437	73.566000
48.596906	-0.453794	73.612000
48.626968	-0.447551	73.659000
48.658666	-0.496239	73.705000
48.688551	-0.528294	73.750000
48.719919	-0.514657	73.797000
48.749154	-0.477087	73.843000
48.780798	-0.489558	73.889000
48.885670	-0.483217	73.936000
48.916262	-0.523225	74.091000
48.947733	-0.538623	74.137000
48.977464	-0.520396	74.183000
49.008198	-0.493385	74.229000
49.127507	-0.527722	74.276000
49.157330	-0.524180	74.454000
49.188037	-0.553957	74.500000
49.218452	-0.564570	74.546000
49.250031	-0.520279	74.592000
49.281041	-0.505548	74.638000
49.312067	-0.511891	74.685000
49.342763	-0.506524	74.731000
49.374495	-0.468530	74.777000
49.405133	-0.456322	74.824000
49.435068	-0.489685	74.870000
49.465356	-0.502399	74.916000
49.496243	-0.474479	74.962000
49.528310	-0.427655	75.009000
49.632056	-0.460641	75.055000
49.662974	-0.454122	75.210000
49.693459	-0.501022	75.256000
49.723720	-0.518879	75.303000
49.754415	-0.491552	75.349000
49.859494	-0.428713	75.395000
49.891062	-0.379958	75.554000
49.921757	-0.364013	75.599000
49.953421	-0.405874	75.646000
49.984339	-0.433548	75.692000
50.014965	-0.409821	75.739000
50.045507	-0.349648	75.784000
50.075799	-0.352896	75.830000
50.106483	-0.355254	75.877000
50.137009	-0.351583	75.922000
50.168208	-0.321710	75.969000
50.199184	-0.363705	76.016000
50.230252	-0.397974	76.062000
50.260870	-0.422482	76.108000
50.364670	-0.442791	76.154000
50.394582	-0.453348	76.308000
50.424693	-0.410286	76.355000
50.456583	-0.433366	76.402000
50.487686	-0.462365	76.448000
50.593917	-0.474098	76.495000
50.624728	-0.470608	76.654000
50.655189	-0.462301	76.700000
50.686714	-0.410622	76.745000
50.717479	-0.433971	76.792000
50.747744	-0.456583	76.838000
50.777736	-0.465146	76.885000
50.809434	-0.418569	76.931000
50.840145	-0.427053	76.977000
50.871528	-0.454787	77.023000
50.901909	-0.475985	77.070000
50.933061	-0.447849	77.116000
50.964010	-0.430742	77.162000
50.995001	-0.451275	77.209000
51.097291	-0.386030	77.255000
51.127722	-0.390188	77.409000
51.159197	-0.379820	77.455000
51.190219	-0.318823	77.502000
51.221418	-0.276541	77.548000
51.327603	-0.272724	77.595000
51.357807	-0.185810	77.753000
51.388598	-0.190603	77.799000
51.418863	-0.173149	77.845000
51.449474	-0.110091	77.891000
51.480066	-0.101501	77.937000
51.511241	-0.125647	77.982000
51.541991	-0.122137	78.029000
51.573224	-0.072309	78.075000
51.603312	-0.028250	78.121000
51.634980	-0.040687	78.168000
51.664960	-0.042914	78.214000
51.695833	-0.017301	78.261000
51.725871	0.028705	78.307000
52.202003	0.061921	78.353000
52.234109	0.148847	79.066000
52.264839	0.117101	79.113000
52.295426	0.074788	79.159000
52.324458	0.042531	79.204000
52.356122	0.065348	79.251000
52.387317	0.050442	79.298000
52.418331	0.016084	79.344000
52.449887	0.010076	79.391000
52.552780	0.064935	79.437000
52.584021	0.058018	79.592000
52.614044	0.101139	79.638000
52.644609	0.110649	79.684000
52.675066	0.093775	79.730000
52.793003	0.097457	79.777000
52.824540	0.176349	79.953000
52.855589	0.197369	80.000000
52.886933	0.250803	80.046000
52.917421	0.238757	80.092000
52.949039	0.236773	80.138000
52.979615	0.240177	80.184000
53.009554	0.276879	80.229000
53.039454	0.241525	80.276000
53.070649	0.195164	80.323000
53.101590	0.156790	80.369000
53.133046	0.185216	80.415000
53.164506	0.184209	80.462000
53.195547	0.138913	80.508000
53.298563	0.084108	80.554000
53.328617	0.045652	80.710000
53.359435	0.025721	80.756000
53.389954	0.067457	80.802000
53.421594	0.076744	80.849000
53.527753	0.055088	80.895000
53.558779	0.133169	81.054000
53.589916	0.124770	81.100000
53.620335	0.126273	81.146000
53.652175	0.184741	81.193000
53.682786	0.205365	81.239000
53.713220	0.197338	81.286000
53.743147	0.205004	81.332000
53.774626	0.265077	81.378000
53.805567	0.299018	81.424000
53.836370	0.279350	81.470000
53.867554	0.273083	81.517000
53.899098	0.309642	81.563000
53.930685	0.351581	81.610000
54.032079	0.382323	81.657000
54.063244	0.384825	81.811000
54.093981	0.337414	81.857000
54.125295	0.308708	81.903000
54.156406	0.320396	81.950000
54.261653	0.346979	81.996000
54.292514	0.345061	82.153000
54.322679	0.365112	82.200000
54.354039	0.329217	82.246000
54.384385	0.300279	82.293000
54.415407	0.315284	82.339000
54.445415	0.328539	82.385000
54.477136	0.295888	82.432000
54.508277	0.267240	82.478000
54.539161	0.252353	82.525000
54.569918	0.272066	82.570000
54.600682	0.228599	82.616000
54.631051	0.184773	82.662000
54.661381	0.159773	82.709000
54.764855	0.140066	82.755000
54.796019	0.158262	82.909000
54.827091	0.188345	82.955000
54.857897	0.150656	83.001000
54.887452	0.118256	83.047000
54.994417	0.100081	83.093000
55.024940	0.067838	83.253000
55.055524	0.074333	83.300000
55.087122	0.108332	83.347000
55.118017	0.089408	83.393000
55.149166	0.082427	83.439000
55.180180	0.105941	83.485000
55.210964	0.168353	83.531000
55.242185	0.150000	83.578000
55.272616	0.128082	83.624000
55.302958	0.124273	83.670000
55.333373	0.174011	83.716000
55.363914	0.166173	83.763000
55.395013	0.156484	83.809000
55.869267	0.219859	83.854000
55.899693	0.238249	84.566000
55.930477	0.230020	84.612000
55.961803	0.266083	84.658000
55.992655	0.298603	84.705000
56.023869	0.282064	84.751000
56.055137	0.282583	84.798000
56.086451	0.314202	84.844000
56.116536	0.356045	84.890000
56.219625	0.406004	84.936000
56.250017	0.443538	85.092000
56.281250	0.421110	85.137000
56.312329	0.411759	85.184000
56.343125	0.448012	85.230000
56.461081	0.500347	85.276000
56.492898	0.558782	85.454000
56.523744	0.518731	85.499000
56.554255	0.479989	85.546000
56.584581	0.472351	85.592000
56.615465	0.531150	85.638000
56.646464	0.549852	85.685000
56.677497	0.544690	85.731000
56.707493	0.548794	85.777000
56.739291	0.598533	85.824000
56.769914	0.615777	85.869000
56.801554	0.592789	85.915000
56.830840	0.590653	85.961000
56.862503	0.617114	86.008000
56.965193	0.538999	86.054000
56.995823	0.549208	86.209000
57.027390	0.536016	86.255000
57.057886	0.475377	86.301000
57.089427	0.436745	86.348000
57.195700	0.440627	86.394000
57.226353	0.398748	86.554000
57.256592	0.443251	86.600000
57.286453	0.448816	86.646000
57.318052	0.414414	86.692000
57.348467	0.398988	86.737000
57.379842	0.432779	86.784000
57.410368	0.463043	86.830000
57.442128	0.435000	86.876000
57.472581	0.419227	86.923000
57.502996	0.439389	86.968000
57.533269	0.480307	87.015000
57.564230	0.460610	87.061000
57.594960	0.450930	87.108000
57.699070	0.491077	87.154000
57.730092	0.476361	87.309000
57.760995	0.493446	87.355000
57.792017	0.535647	87.401000
57.822340	0.510999	87.448000
57.928445	0.494556	87.494000
57.958729	0.510101	87.654000
57.989509	0.501045	87.700000
58.020085	0.540522	87.746000
58.051576	0.591583	87.792000
58.083182	0.569792	87.838000
58.113854	0.556664	87.884000
58.144607	0.574489	87.930000
58.175863	0.614706	87.977000
58.205518	0.591562	88.023000
58.235641	0.576996	88.068000
58.266862	0.576553	88.115000
58.297573	0.621663	88.162000
58.329198	0.597645	88.208000
58.433009	0.628630	88.255000
58.463567	0.595772	88.409000
58.492779	0.570449	88.455000
58.524201	0.559913	88.501000
58.555265	0.585617	88.548000
58.661508	0.544331	88.594000
58.692437	0.523406	88.753000
58.723298	0.500166	88.800000
58.754850	0.499151	88.846000
58.785834	0.522023	88.892000
58.817443	0.571971	88.939000
58.847205	0.568861	88.986000
58.878807	0.583026	89.032000
58.909226	0.613317	89.079000
58.939414	0.661365	89.125000
58.970229	0.637812	89.171000
59.001470	0.615936	89.217000
59.033349	0.599951	89.264000
59.064371	0.647377	89.310000
59.536934	0.533076	89.356000
59.567399	0.450232	90.066000
59.598851	0.485121	90.113000
59.630518	0.475622	90.159000
59.661168	0.477409	90.206000
59.692489	0.517071	90.251000
59.723561	0.562155	90.298000
59.753373	0.563351	90.344000
59.784026	0.580730	90.391000
59.887438	0.751145	90.437000
59.917626	0.778557	90.592000
59.949712	0.833847	90.638000
59.980500	0.877662	90.684000
60.011491	0.850031	90.730000
60.126908	0.828440	90.776000
60.157292	0.902298	90.953000
60.188418	0.922411	91.000000
60.217680	0.978689	91.047000
60.248875	0.963924	91.092000
60.279102	0.928903	91.138000
60.310850	0.911313	91.185000
60.341661	0.953501	91.231000
60.372917	0.944989	91.277000
60.403651	0.908130	91.324000
60.434730	0.880456	91.370000
60.464665	0.912826	91.415000
60.495072	0.929264	91.462000
60.526186	0.904236	91.509000
60.628834	0.898599	91.555000
60.660589	0.866969	91.709000
60.691235	0.847662	91.755000
60.722030	0.878330	91.800000
60.751147	0.884772	91.847000
60.858254	0.860071	91.893000
60.889741	0.873146	92.054000
60.921089	0.845854	92.100000
60.951496	0.827667	92.146000
60.982130	0.856878	92.192000
61.013494	0.841253	92.238000
61.044505	0.806275	92.284000
61.075058	0.783722	92.330000
61.104270	0.814155	92.376000
61.136645	0.817389	92.423000
61.167129	0.774168	92.470000
61.197709	0.746352	92.516000
61.228289	0.770964	92.562000
61.259853	0.803212	92.608000
61.363772	0.789649	92.654000
61.394674	0.789022	92.809000
61.425308	0.750085	92.856000
61.455074	0.721946	92.902000
61.486599	0.738801	92.949000
61.592642	0.745418	92.995000
61.623357	0.724687	93.154000
61.654898	0.728314	93.200000
61.685451	0.707215	93.246000
61.716907	0.699602	93.293000
61.747879	0.743710	93.339000
61.778740	0.759724	93.385000
61.807476	0.736935	93.431000
61.839174	0.726076	93.478000
61.870511	0.755364	93.524000
61.901122	0.763975	93.570000
61.931683	0.709474	93.615000
61.962785	0.665659	93.662000
61.993492	0.658564	93.708000
62.096089	0.591615	93.754000
62.127184	0.612233	93.909000
62.157903	0.626816	93.956000
62.189013	0.582814	94.002000
62.220085	0.564748	94.048000
62.326328	0.605409	94.094000
62.357715	0.642966	94.254000
62.388756	0.705636	94.300000
62.419759	0.738039	94.347000
62.449797	0.733351	94.392000
62.480408	0.740201	94.439000
62.511084	0.789544	94.486000
62.542552	0.819374	94.532000
62.573409	0.796637	94.579000
62.605099	0.777731	94.625000
62.635664	0.788281	94.672000
62.667262	0.798079	94.718000
62.698645	0.751029	94.765000
62.729337	0.723489	94.811000
63.201355	0.722811	94.857000
63.231547	0.782840	95.566000
63.263402	0.789787	95.612000
63.294321	0.827532	95.659000
63.325062	0.788355	95.705000
63.354282	0.740456	95.752000
63.385784	0.711024	95.798000
63.417179	0.741962	95.844000
63.448201	0.724815	95.891000
63.552147	0.748514	95.937000
63.582642	0.742238	96.092000
63.613580	0.741113	96.138000
63.643622	0.753042	96.184000
63.674398	0.800984	96.230000
63.792839	0.777315	96.277000
63.824068	0.780624	96.454000
63.855113	0.757984	96.500000
63.886123	0.750382	96.546000
63.916446	0.783582	96.592000
63.947287	0.810050	96.638000
63.979051	0.793794	96.685000
64.010169	0.813253	96.732000
64.040588	0.882306	96.778000
64.070507	0.931446	96.824000
64.101579	0.906933	96.870000
64.132697	0.885754	96.917000
64.163462	0.891614	96.963000
64.194749	0.917331	97.010000
64.298341	0.831380	97.056000
64.329005	0.830703	97.210000
64.359240	0.786785	97.256000
64.389482	0.761633	97.303000
64.420462	0.767942	97.348000
64.526708	0.791399	97.395000
64.558387	0.712974	97.554000
64.588791	0.710619	97.600000
64.619978	0.655935	97.647000
64.651034	0.633517	97.693000
64.681868	0.667672	97.738000
64.712963	0.721543	97.785000
64.743136	0.717703	97.832000
64.773647	0.713896	97.878000
64.804427	0.744963	97.924000
64.835422	0.804792	97.970000
64.866125	0.785152	98.017000
64.897681	0.766871	98.063000
64.928907	0.760115	98.109000
65.030858	0.730393	98.155000
65.062491	0.733075	98.311000
65.092534	0.751781	98.356000
65.123744	0.723691	98.402000
65.154370	0.708531	98.448000
65.260440	0.722000	98.495000
65.292096	0.737487	98.654000
65.322953	0.765896	98.700000
65.354378	0.785344	98.747000
65.384113	0.742970	98.793000
65.415369	0.708998	98.840000
65.445773	0.699994	98.886000
65.477252	0.717344	98.933000
65.508101	0.679826	98.979000
65.539657	0.659307	99.026000
65.570560	0.663741	99.072000
65.601009	0.706962	99.118000
65.631789	0.690769	99.164000
65.662016	0.688321	99.209000
65.764267	0.791494	99.255000
65.794817	0.791791	99.410000
65.826749	0.810761	99.456000
65.856692	0.859468	99.502000
65.888755	0.836471	99.549000
65.994164	0.816339	99.595000
66.025128	0.829838	99.754000
66.055931	0.816116	99.801000
66.085712	0.829159	99.847000
66.117629	0.858939	99.893000
66.148532	0.826948	99.940000
66.179512	0.803848	99.986000
66.209531	0.798992	100.032000
66.241425	0.822925	100.078000
66.271998	0.784092	100.124000
66.303892	0.751431	100.171000
66.333512	0.744094	100.217000
66.364430	0.799532	100.264000
66.394995	0.788270	100.310000
66.869486	0.709177	100.356000
66.900097	0.610476	101.066000
66.929971	0.591785	101.113000
66.960966	0.590940	101.159000
66.992306	0.643453	101.205000
67.023309	0.657600	101.252000
67.054166	0.636424	101.297000
67.085115	0.624536	101.344000
67.116686	0.653294	101.390000
67.219107	0.642785	101.437000
67.249549	0.692234	101.592000
67.279821	0.700918	101.638000
67.311800	0.678319	101.685000
67.342918	0.667293	101.731000
67.460805	0.707747	101.777000
67.492131	0.713156	101.954000
67.522319	0.757402	102.001000
67.554351	0.732726	102.047000
67.585093	0.714842	102.093000
67.614912	0.731580	102.139000
67.644632	0.788037	102.184000
67.675212	0.776457	102.230000
67.706553	0.742853	102.277000
67.737548	0.716526	102.323000
67.768904	0.765854	102.369000
67.799853	0.768472	102.416000
67.831278	0.774452	102.462000
67.861551	0.787580	102.508000
67.963995	0.831836	102.555000
67.994682	0.871442	102.709000
68.026453	0.958199	102.756000
68.057426	0.980489	102.802000
68.088444	0.994050	102.849000
68.195021	1.003643	102.895000
68.225163	0.936038	103.054000
68.256727	0.950033	103.100000
68.287130	0.982243	103.146000
68.316435	0.954879	103.191000
68.346892	0.938239	103.238000
68.378363	0.950860	103.284000
68.409958	1.001199	103.330000
68.440461	0.997677	103.376000
68.471518	1.007071	103.423000
68.503120	1.035177	103.470000
68.534453	1.110015	103.516000
68.564703	1.120535	103.563000
68.594584	1.128710	103.609000
68.698095	1.283650	103.655000
68.729866	1.312625	103.811000
68.761330	1.357625	103.857000
68.792095	1.433824	103.903000
68.822667	1.436236	103.949000
68.927946	1.436587	103.996000
68.959379	1.484680	104.154000
68.989375	1.478445	104.200000
69.019886	1.501390	104.246000
69.050789	1.547848	104.293000
69.082114	1.513883	104.339000
69.113816	1.475630	104.386000
69.144565	1.449629	104.432000
69.175414	1.467496	104.478000
69.206141	1.446909	104.525000
69.236851	1.435823	104.571000
69.266740	1.431826	104.617000
69.297343	1.463570	104.662000
69.328738	1.432364	104.709000
69.432549	1.408723	104.756000
69.463782	1.382425	104.911000
69.494962	1.351838	104.957000
69.524958	1.328292	105.003000
69.555123	1.344339	105.049000
69.660248	1.297033	105.096000
69.691843	1.259563	105.254000
69.722945	1.225829	105.301000
69.754386	1.210272	105.347000
69.785304	1.229923	105.393000
69.816560	1.264727	105.440000
69.847433	1.237959	105.486000
69.878320	1.219265	105.532000
69.909208	1.227451	105.579000
69.939987	1.261034	105.625000
69.969838	1.229859	105.671000
70.000556	1.203687	105.718000
70.031943	1.198375	105.764000
70.063561	1.238087	105.811000
70.536062	1.268389	105.857000
70.566812	1.333961	106.566000
70.597299	1.311081	106.612000
70.628855	1.275116	106.658000
70.660219	1.254630	106.705000
70.690961	1.274289	106.751000
70.721034	1.235574	106.797000
70.752828	1.200698	106.843000
70.781856	1.185532	106.889000
70.886497	1.153036	106.935000
70.917484	1.152707	107.092000
70.948034	1.199255	107.138000
70.979390	1.189499	107.184000
71.010493	1.186677	107.231000
71.128580	1.201748	107.277000
71.159590	1.193084	107.454000
71.189924	1.218034	107.500000
71.221388	1.216073	107.546000
71.251699	1.177856	107.593000
71.282464	1.150236	107.639000
71.312691	1.166138	107.686000
71.344915	1.164664	107.732000
71.375949	1.122200	107.778000
71.407243	1.094086	107.825000
71.437270	1.117861	107.871000
71.469487	1.139632	107.917000
71.500228	1.103037	107.964000
71.531170	1.073547	108.011000
71.633498	1.024820	108.057000
71.663786	1.006618	108.212000
71.695580	1.042814	108.257000
71.726414	1.049909	108.304000
71.757601	1.018539	108.350000
71.862964	1.000343	108.395000
71.892354	0.991456	108.554000
71.923933	0.976669	108.601000
71.954651	1.023310	108.647000
71.986015	1.033994	108.694000
72.016918	1.029707	108.740000
72.048005	1.042485	108.786000
72.079315	1.096198	108.833000
72.109988	1.111932	108.879000
72.140537	1.097088	108.925000
72.171870	1.097713	108.971000
72.201989	1.146429	109.018000
72.232723	1.168884	109.064000
72.263641	1.148221	109.111000
72.367491	1.171950	109.158000
72.398624	1.139367	109.311000
72.429489	1.124096	109.358000
72.460891	1.159500	109.405000
72.490780	1.147839	109.450000
72.595159	1.110756	109.497000
72.625793	1.053929	109.654000
72.657257	1.009577	109.701000
72.688813	0.989383	109.747000
72.719478	1.025393	109.793000
72.750596	1.004902	109.839000
72.781153	0.972436	109.885000
72.812724	0.956369	109.932000
72.841929	0.991131	109.978000
72.873201	0.964960	110.024000
72.903804	0.912572	110.071000
72.935291	0.882010	110.117000
72.966201	0.902227	110.164000
72.997304	0.865150	110.210000
73.100569	0.684278	110.257000
73.131395	0.640409	110.411000
73.161845	0.627940	110.457000
73.191949	0.636570	110.502000
73.222598	0.687281	110.549000
73.328230	0.668427	110.596000
73.359878	0.664790	110.754000
73.391357	0.632975	110.801000
73.421784	0.604743	110.847000
73.452733	0.596598	110.893000
73.483060	0.621015	110.939000
73.514101	0.582718	110.985000
73.544158	0.550573	111.032000
73.575284	0.544161	111.077000
73.606379	0.587785	111.124000
73.637958	0.570650	111.170000
73.668354	0.551694	111.216000
73.699418	0.546076	111.263000
73.730259	0.588971	111.309000
74.203806	0.538418	111.355000
74.235124	0.469041	112.067000
74.266180	0.461784	112.113000
74.297199	0.440988	112.159000
74.328685	0.433286	112.206000
74.359089	0.467835	112.252000
74.389139	0.473199	112.298000
74.419504	0.447124	112.344000
74.451144	0.433985	112.391000
74.554541	0.476318	112.437000
74.585735	0.483628	112.592000
74.616684	0.542047	112.638000
74.647687	0.554962	112.685000
74.678083	0.545388	112.731000
74.796347	0.548130	112.777000
74.826627	0.633645	112.954000
74.857200	0.694280	113.001000
74.887457	0.758229	113.047000
74.919389	0.762407	113.093000
74.950154	0.772853	113.140000
74.981595	0.814261	113.185000
75.012190	0.862219	113.232000
75.042986	0.841455	113.277000
75.073635	0.830545	113.324000
75.104399	0.852327	113.370000
75.134741	0.921120	113.416000
75.165752	0.933987	113.462000
75.196493	0.948987	113.508000
75.300589	1.028650	113.555000
75.331653	1.034829	113.709000
75.361280	1.070419	113.755000
75.392060	1.113843	113.801000
75.422748	1.078849	113.848000
75.529617	1.039143	113.894000
75.560804	0.939169	114.054000
75.591385	0.913459	114.100000
75.622802	0.947558	114.147000
75.653951	0.973434	114.193000
75.685345	0.954677	114.239000
75.715050	0.945273	114.285000
75.746375	0.985481	114.332000
75.776348	1.023847	114.378000
75.807559	1.019459	114.424000
75.837224	1.030671	114.470000
75.869280	1.083207	114.516000
75.900498	1.148974	114.563000
75.932192	1.162522	114.609000
76.035104	1.368684	114.656000
76.064816	1.387323	114.811000
76.095688	1.417471	114.857000
76.126376	1.497967	114.903000
76.158070	1.574985	114.949000
76.263487	1.610579	114.996000
76.294167	1.803983	115.154000
76.326146	1.816265	115.201000
76.356949	1.830949	115.246000
76.387437	1.892705	115.293000
76.416557	1.906465	115.339000
76.448336	1.897843	115.385000
76.478639	1.896439	115.431000
76.509896	1.947264	115.477000
76.540668	1.962619	115.524000
76.572116	1.950403	115.570000
76.603011	1.950286	115.615000
76.634114	2.004675	115.662000
76.664663	2.025496	115.709000
76.766892	2.068496	115.755000
76.797564	2.079832	115.909000
76.828528	2.082620	115.955000
76.860446	2.104985	116.001000
76.890219	2.186358	116.048000
76.997703	2.226739	116.094000
77.028713	2.443294	116.254000
77.059647	2.489671	116.301000
77.090281	2.535407	116.347000
77.120223	2.605874	116.393000
77.151464	2.731635	116.440000
77.181752	2.804227	116.485000
77.213039	2.881696	116.531000
77.243258	2.964927	116.576000
77.275022	3.081307	116.623000
77.305095	3.140401	116.669000
77.335798	3.205401	116.715000
77.364987	3.295643	116.762000
77.397035	3.433009	116.808000
77.872918	3.927589	116.855000
77.903651	4.422808	117.566000
77.934170	4.470927	117.613000
77.963068	4.499242	117.658000
77.994278	4.544628	117.705000
78.025611	4.645098	117.751000
78.057443	4.711530	117.798000
78.087762	4.748757	117.844000
78.119065	4.793778	117.890000
78.222937	4.940618	117.937000
78.253372	4.964967	118.092000
78.283975	5.049964	118.138000
78.313725	5.083590	118.184000
78.345811	5.102910	118.231000
78.463176	5.125498	118.277000
78.494770	5.239128	118.455000
78.525896	5.308567	118.501000
78.556484	5.364445	118.547000
78.587679	5.381009	118.593000
78.619596	5.408622	118.639000
78.650222	5.483588	118.686000
78.680295	5.561605	118.733000
78.711452	5.578643	118.779000
78.742385	5.594963	118.825000
78.772973	5.656044	118.872000
78.803645	5.720891	118.918000
78.835378	5.732094	118.964000
78.866980	5.750404	119.011000
78.970215	5.891533	119.058000
79.000311	5.913607	119.211000
79.030407	5.998513	119.258000
79.061395	6.083684	119.305000
79.092666	6.119804	119.351000
79.198183	6.150924	119.396000
79.229486	6.344209	119.554000
79.260196	6.412245	119.601000
79.291729	6.528748	119.648000
79.322909	6.584364	119.694000
79.353166	6.638248	119.740000
79.382755	6.705188	119.786000
79.414173	6.809655	119.833000
79.445083	6.864537	119.879000
79.475894	6.905666	119.925000
79.506251	6.957563	119.971000
79.537892	7.069985	120.017000
79.568910	7.141060	120.064000
79.599943	7.183287	120.110000
79.702018	7.485769	120.156000
79.733052	7.548907	120.310000
79.763862	7.618395	120.357000
79.794711	7.740938	120.403000
79.825215	7.811948	120.448000
79.932176	7.864316	120.495000
79.963732	8.100752	120.655000
79.993306	8.132990	120.700000
80.023840	8.202620	120.747000
80.053928	8.318086	120.793000
80.085592	8.386167	120.839000
80.116479	8.466440	120.886000
80.147536	8.577366	120.932000
80.178377	8.729162	120.978000
80.209495	8.812406	121.024000
80.239653	8.891656	121.070000
80.269941	8.988754	121.116000
80.299737	9.142618	121.162000
80.331132	9.239843	121.207000
80.434843	9.636458	121.254000
80.464962	9.715798	121.409000
80.496895	9.794403	121.455000
80.527252	9.901815	121.502000
80.557025	10.056557	121.547000
80.665132	10.136411	121.592000
80.694705	10.573767	121.755000
80.725946	10.662541	121.801000
80.757087	10.746462	121.847000
80.788052	10.867012	121.893000
80.818555	10.982713	121.939000
80.850533	11.023605	121.985000
80.881091	11.067695	122.032000
80.912055	11.148177	122.078000
80.942013	11.256756	122.124000
80.973292	11.310571	122.171000
81.003642	11.368751	122.217000
81.034337	11.459964	122.263000
81.065701	11.600348	122.310000
81.539394	12.488928	122.355000
81.570289	13.323476	123.067000
81.601115	13.401818	123.113000
81.632402	13.492967	123.160000
81.663996	13.611139	123.206000
81.694039	13.760155	123.252000
81.725364	13.856911	123.298000
81.755837	13.957058	123.345000
81.787562	14.066099	123.390000
81.889490	14.385601	123.437000
81.921008	14.513382	123.592000
81.951642	14.653539	123.639000
81.983136	14.729566	123.685000
82.014654	14.809357	123.732000
82.131220	14.930951	123.778000
82.163091	15.347958	123.954000
82.193924	15.525089	124.000000
82.224374	15.636578	124.046000
82.255092	15.731053	124.093000
82.285657	15.843114	124.139000
82.316706	16.018792	124.186000
82.347017	16.140512	124.232000
82.378396	16.251879	124.278000
82.409238	16.376712	124.324000
82.440586	16.562321	124.370000
82.470506	16.698464	124.416000
82.502569	16.813917	124.463000
82.533057	16.950455	124.509000
82.635339	17.458138	124.556000
82.666610	17.586815	124.710000
82.697329	17.768714	124.756000
82.728900	17.896494	124.802000
82.759665	18.014440	124.849000
82.865773	18.150708	124.895000
82.896922	18.668015	125.055000
82.927095	18.851741	125.101000
82.956699	19.047780	125.147000
82.987963	19.190610	125.193000
83.019343	19.330507	125.239000
83.050138	19.511577	125.286000
83.081363	19.733157	125.332000
83.112382	19.909826	125.378000
83.143530	20.087635	125.425000
83.174333	20.296412	125.471000
83.205121	20.531077	125.518000
83.235747	20.690450	125.564000
83.266312	20.840759	125.611000
83.370138	21.379250	125.657000
83.401034	21.502293	125.811000
83.432067	21.681731	125.858000
83.463308	21.878880	125.904000
83.494403	22.026032	125.950000
83.599082	22.176184	125.997000
83.629317	22.784949	126.155000
83.659766	22.940538	126.201000
83.691645	23.159413	126.247000
83.722555	23.342070	126.293000
83.753497	23.497139	126.339000
83.784392	23.660681	126.386000
83.815541	23.878639	126.432000
83.845929	24.054552	126.478000
83.876417	24.188252	126.524000
83.906659	24.336693	126.570000
83.937846	24.552637	126.617000
83.968987	24.742997	126.663000
83.999467	24.884473	126.708000
84.103309	25.426404	126.755000
84.134028	25.548805	126.910000
84.163970	25.681791	126.956000
84.194681	25.890041	127.002000
84.225545	26.052748	127.049000
84.331854	26.185674	127.095000
84.363648	26.772763	127.254000
84.394343	26.889985	127.301000
84.425438	27.026880	127.347000
84.456425	27.200856	127.393000
84.486698	27.312580	127.439000
84.517263	27.419511	127.486000
84.547751	27.558484	127.532000
84.578101	27.759970	127.578000
84.608489	27.914103	127.624000
84.639837	28.074758	127.670000
84.671193	28.251987	127.716000
84.702104	28.493147	127.762000
84.732577	28.681656	127.808000
85.206431	30.152453	127.854000
85.238025	32.038852	128.567000
85.269642	32.214953	128.613000
85.300115	32.394350	128.660000
85.330718	32.637349	128.705000
85.362197	32.826986	128.752000
85.392071	33.023446	128.798000
85.422958	33.244812	128.844000
85.452101	33.538265	128.890000
85.557057	34.380645	128.936000
85.588805	34.689747	129.092000
85.619608	34.934008	129.138000
85.651049	35.183403	129.185000
85.680830	35.470018	129.231000
85.799424	35.778768	129.277000
85.830842	36.674927	129.455000
85.860761	36.888900	129.501000
85.891073	37.094213	129.547000
85.921384	37.325643	129.593000
85.953224	37.625141	129.639000
85.984227	37.868635	129.686000
86.015475	38.083928	129.732000
86.045495	38.310578	129.778000
86.077558	38.606324	129.824000
86.107738	38.844727	129.870000
86.137850	39.049525	129.916000
86.167639	39.267032	129.962000
86.199855	39.539185	130.009000
86.303313	40.300329	130.056000
86.333970	40.598073	130.209000
86.365649	40.827579	130.256000
86.395184	41.033203	130.302000
86.425818	41.238745	130.348000
86.532703	41.495811	130.394000
86.563475	42.233982	130.553000
86.594731	42.507785	130.601000
86.625788	42.711328	130.647000
86.656852	42.895592	130.694000
86.687593	43.124173	130.740000
86.718965	43.372681	130.787000
86.749783	43.566738	130.833000
86.781647	43.767521	130.880000
86.811213	44.026415	130.926000
86.841624	44.301300	130.971000
86.871351	44.513969	131.017000
86.903660	44.716176	131.064000
86.934440	44.967367	131.110000
87.037713	45.692877	131.157000
87.068993	45.928176	131.311000
87.098389	46.141180	131.357000
87.129507	46.284818	131.404000
87.160011	46.423517	131.450000
87.266165	46.641170	131.496000
87.297091	47.327354	131.654000
87.328063	47.615129	131.700000
87.358774	47.846295	131.746000
