Sample	2mm tape 2
date	08/01/2025
	
Temperature (K)	77.00
Angle (deg.)	180.000000
field / T	0.080000
	
		
Approx. trace time (s)	60.0	
		
Current / A	V1  -sample/ uV	time/s
0.002711	-2.236054	0.000000
0.002843	-2.248900	0.047000
0.003076	-2.263474	0.093000
0.003237	-2.277059	0.140000
0.003302	-2.287748	0.186000
0.003202	-2.297102	0.233000
0.003202	-2.304019	0.279000
0.003196	-2.310270	0.325000
0.003160	-2.321501	0.371000
0.003243	-2.333523	0.418000
0.003088	-2.346473	0.464000
0.072751	-2.366673	0.510000
0.104025	-2.449676	0.878000
0.135116	-2.454250	0.924000
0.166893	-2.467652	0.971000
0.198158	-2.484006	1.017000
0.228828	-2.503345	1.064000
0.259879	-2.520582	1.110000
0.289978	-2.543487	1.157000
0.320487	-2.557409	1.203000
0.351555	-2.572714	1.250000
0.382620	-2.590587	1.296000
0.413832	-2.607211	1.342000
0.444544	-2.626706	1.388000
0.475540	-2.648708	1.434000
0.506074	-2.662377	1.480000
0.537053	-2.675629	1.525000
0.652020	-2.686994	1.573000
0.682344	-2.717696	1.746000
0.714536	-2.719300	1.792000
0.961657	-2.716975	1.839000
0.992479	-2.707651	2.211000
1.023765	-2.694859	2.257000
1.054640	-2.683158	2.303000
1.086336	-2.675106	2.350000
1.117424	-2.661573	2.396000
1.148182	-2.633102	2.443000
1.179608	-2.592539	2.489000
1.210130	-2.554736	2.535000
1.241042	-2.522390	2.582000
1.271058	-2.497802	2.628000
1.385785	-2.482840	2.675000
1.416763	-2.410146	2.846000
1.447452	-2.385841	2.892000
1.554442	-2.316895	2.939000
1.585878	-2.297091	3.098000
1.616577	-2.279057	3.145000
1.648092	-2.268483	3.191000
1.678365	-2.252971	3.238000
1.708755	-2.240814	3.284000
1.739625	-2.236459	3.330000
1.770725	-2.231927	3.376000
1.802099	-2.229343	3.423000
1.833369	-2.226103	3.469000
1.863775	-2.221426	3.515000
1.894694	-2.215123	3.561000
1.924769	-2.216040	3.607000
1.956140	-2.213153	3.654000
1.985856	-2.213216	3.700000
2.017098	-2.207861	3.746000
2.121761	-2.212768	3.792000
2.152302	-2.231073	3.948000
2.184202	-2.230687	3.995000
2.288183	-2.200486	4.042000
2.319528	-2.195444	4.198000
2.350020	-2.196881	4.245000
2.379889	-2.202829	4.290000
2.409923	-2.213497	4.336000
2.441834	-2.222176	4.382000
2.473013	-2.237927	4.429000
2.504111	-2.255170	4.475000
2.535369	-2.269911	4.522000
2.565973	-2.285267	4.568000
2.596990	-2.292486	4.614000
2.626168	-2.298133	4.660000
2.657039	-2.300414	4.706000
2.688136	-2.298778	4.753000
2.719489	-2.294528	4.799000
2.750521	-2.284891	4.845000
2.854750	-2.270286	4.892000
2.885253	-2.271724	5.047000
2.916041	-2.281152	5.094000
3.021110	-2.261587	5.140000
3.051855	-2.249252	5.298000
3.082960	-2.239449	5.344000
3.113482	-2.230896	5.391000
3.144724	-2.224968	5.437000
3.176448	-2.216925	5.483000
3.207186	-2.211862	5.529000
3.237695	-2.202881	5.576000
3.269355	-2.190276	5.622000
3.299983	-2.175793	5.669000
3.330306	-2.170240	5.716000
3.360494	-2.168817	5.761000
3.392197	-2.169429	5.808000
3.423646	-2.169284	5.855000
3.454206	-2.175324	5.901000
3.485457	-2.189654	5.946000
3.731035	-2.200673	5.993000
3.762204	-2.154511	6.362000
3.792886	-2.133778	6.407000
3.823345	-2.116581	6.454000
3.853928	-2.096609	6.500000
3.884866	-2.073081	6.547000
3.915780	-2.052702	6.593000
3.946415	-2.036265	6.640000
3.978314	-2.027989	6.686000
4.009373	-2.026627	6.732000
4.040536	-2.027346	6.778000
4.070728	-2.024663	6.824000
4.102409	-2.017707	6.871000
4.132726	-2.020941	6.918000
4.162930	-2.022428	6.964000
4.193178	-2.016043	7.010000
4.224873	-2.009888	7.056000
4.329191	-1.960331	7.103000
4.360592	-1.967426	7.258000
4.391596	-1.936444	7.305000
4.636650	-1.738032	7.351000
4.666030	-1.728613	7.718000
4.697579	-1.727178	7.764000
4.728091	-1.734737	7.811000
4.759191	-1.739811	7.857000
4.789697	-1.746652	7.904000
4.821664	-1.749272	7.950000
4.852125	-1.744500	7.997000
4.883561	-1.744667	8.043000
4.914940	-1.756230	8.090000
4.946117	-1.762776	8.136000
5.054828	-1.781684	8.182000
5.086079	-1.792591	8.346000
5.117191	-1.799436	8.393000
5.223415	-1.854767	8.439000
5.252310	-1.847171	8.598000
5.284616	-1.842306	8.644000
5.314579	-1.825586	8.691000
5.346364	-1.796602	8.737000
5.376380	-1.777767	8.784000
5.408004	-1.756915	8.830000
5.439570	-1.732460	8.877000
5.470537	-1.707839	8.923000
5.501012	-1.687057	8.970000
5.532723	-1.668716	9.016000
5.563140	-1.645063	9.062000
5.593436	-1.631121	9.108000
5.622858	-1.618438	9.154000
5.654742	-1.609318	9.201000
5.686032	-1.603434	9.247000
5.790601	-1.597695	9.294000
5.821838	-1.562190	9.450000
5.851996	-1.556545	9.496000
5.955009	-1.527778	9.543000
5.986705	-1.516965	9.698000
6.017322	-1.510807	9.744000
6.048664	-1.505745	9.791000
6.079240	-1.499431	9.837000
6.111198	-1.492992	9.884000
6.141745	-1.488773	9.930000
6.172570	-1.483043	9.976000
6.201766	-1.481273	10.022000
6.233276	-1.477251	10.068000
6.264284	-1.477241	10.115000
6.295493	-1.473646	10.161000
6.325801	-1.473136	10.208000
6.357287	-1.473001	10.254000
6.388290	-1.476783	10.300000
6.419350	-1.482543	10.346000
6.523295	-1.490493	10.393000
6.552946	-1.505442	10.548000
6.584267	-1.506193	10.595000
6.688792	-1.535800	10.641000
6.720009	-1.534674	10.798000
6.751488	-1.536738	10.844000
6.782416	-1.536186	10.890000
6.813395	-1.529758	10.937000
6.844118	-1.523309	10.983000
6.874721	-1.520570	11.029000
6.904599	-1.515454	11.076000
6.936604	-1.506953	11.122000
6.967329	-1.503306	11.169000
6.998322	-1.499671	11.215000
7.028661	-1.497327	11.261000
7.060312	-1.495202	11.308000
7.090956	-1.491420	11.354000
7.121935	-1.487669	11.400000
7.151280	-1.490337	11.446000
7.397295	-1.485555	11.492000
7.428611	-1.459415	11.861000
7.459442	-1.453820	11.907000
7.489910	-1.450071	11.953000
7.520924	-1.447758	12.000000
7.552228	-1.447164	12.045000
7.583529	-1.444038	12.092000
7.614647	-1.441611	12.138000
7.645722	-1.439663	12.185000
7.676078	-1.441862	12.230000
7.706758	-1.449790	12.277000
7.737115	-1.441174	12.323000
7.768279	-1.450415	12.370000
7.799247	-1.443767	12.416000
7.830334	-1.443923	12.462000
7.860848	-1.449018	12.509000
7.892663	-1.450842	12.555000
7.995734	-1.456072	12.602000
8.026436	-1.469104	12.757000
8.057352	-1.477699	12.803000
8.301789	-1.420380	12.850000
8.333085	-1.409274	13.216000
8.364191	-1.404044	13.263000
8.395619	-1.401564	13.309000
8.426403	-1.398471	13.356000
8.457086	-1.392106	13.402000
8.488363	-1.394075	13.449000
8.519567	-1.402940	13.495000
8.549265	-1.421931	13.541000
8.579236	-1.450727	13.587000
8.610860	-1.468655	13.634000
8.723078	-1.485564	13.680000
8.753492	-1.522110	13.846000
8.784083	-1.519776	13.893000
8.890153	-1.487033	13.939000
8.920975	-1.471594	14.098000
8.951534	-1.458560	14.145000
8.982992	-1.433672	14.191000
9.013565	-1.415275	14.237000
9.045392	-1.391886	14.283000
9.076128	-1.364102	14.330000
9.106455	-1.340495	14.375000
9.135545	-1.314144	14.421000
9.166704	-1.289564	14.467000
9.197377	-1.267117	14.513000
9.228546	-1.250920	14.559000
9.259327	-1.235741	14.605000
9.290504	-1.219116	14.652000
9.321689	-1.203311	14.698000
9.352966	-1.184170	14.745000
9.455941	-1.162669	14.791000
9.486032	-1.099288	14.948000
9.518031	-1.081317	14.994000
9.623639	-1.041552	15.039000
9.653893	-1.042396	15.199000
9.685953	-1.051386	15.245000
9.716882	-1.060294	15.291000
9.747797	-1.072764	15.337000
9.777116	-1.086432	15.382000
9.808178	-1.093569	15.429000
9.838969	-1.107143	15.475000
9.870078	-1.123295	15.522000
9.900685	-1.142780	15.568000
9.932261	-1.162523	15.615000
9.963238	-1.181549	15.661000
9.994259	-1.188557	15.707000
10.025147	-1.190969	15.753000
10.056465	-1.192175	15.800000
10.086359	-1.195626	15.846000
10.189704	-1.199765	15.892000
10.220675	-1.201139	16.047000
10.251554	-1.202512	16.094000
10.356900	-1.234472	16.140000
10.388734	-1.266297	16.298000
10.419355	-1.310609	16.345000
10.450579	-1.339526	16.391000
10.479447	-1.357393	16.437000
10.511527	-1.369426	16.484000
10.542242	-1.369759	16.530000
10.573681	-1.365331	16.576000
10.603903	-1.356361	16.623000
10.635396	-1.353590	16.668000
10.666219	-1.349600	16.714000
10.696811	-1.351195	16.760000
10.725948	-1.352184	16.806000
10.756755	-1.348277	16.851000
10.787755	-1.338349	16.898000
10.819074	-1.323565	16.945000
11.064745	-1.319228	16.991000
11.096274	-1.367530	17.360000
11.127053	-1.382720	17.406000
11.158425	-1.394106	17.452000
11.188510	-1.407254	17.499000
11.220496	-1.420381	17.545000
11.250609	-1.430288	17.591000
11.281715	-1.429704	17.638000
11.311149	-1.420079	17.684000
11.342510	-1.415349	17.729000
11.373593	-1.418765	17.776000
11.405049	-1.416172	17.822000
11.435314	-1.413504	17.868000
11.466490	-1.415609	17.914000
11.497950	-1.417047	17.961000
11.528138	-1.426194	18.007000
11.558557	-1.430454	18.054000
11.662029	-1.428371	18.100000
11.693543	-1.403263	18.256000
11.724278	-1.403691	18.302000
11.969703	-1.358528	18.348000
12.000339	-1.348547	18.714000
12.030822	-1.346411	18.761000
12.061666	-1.343318	18.808000
12.092362	-1.347672	18.854000
12.122979	-1.345474	18.900000
12.153738	-1.352684	18.947000
12.185323	-1.356183	18.993000
12.216457	-1.361496	19.039000
12.246843	-1.368841	19.085000
12.278168	-1.373405	19.132000
12.389270	-1.379790	19.178000
12.420553	-1.399126	19.346000
12.451773	-1.399491	19.393000
12.558413	-1.426599	19.439000
12.589480	-1.432026	19.599000
12.620047	-1.438694	19.645000
12.651326	-1.440902	19.691000
12.682360	-1.445038	19.737000
12.712632	-1.446288	19.783000
12.742423	-1.450632	19.830000
12.773190	-1.456925	19.876000
12.804946	-1.463811	19.923000
12.836369	-1.472416	19.969000
12.866778	-1.480313	20.016000
12.898154	-1.486428	20.062000
12.929409	-1.490741	20.108000
12.959930	-1.497242	20.154000
12.990379	-1.504233	20.200000
13.021589	-1.510015	20.247000
13.124920	-1.519693	20.293000
13.155596	-1.526235	20.447000
13.186054	-1.530246	20.494000
13.292028	-1.543495	20.540000
13.322930	-1.549317	20.699000
13.354205	-1.557593	20.745000
13.385154	-1.567884	20.792000
13.415101	-1.573696	20.837000
13.445266	-1.577596	20.884000
13.476745	-1.583147	20.930000
13.508087	-1.581058	20.977000
13.539076	-1.582087	21.023000
13.569817	-1.585218	21.070000
13.601093	-1.577523	21.116000
13.632268	-1.580164	21.162000
13.663083	-1.578875	21.209000
13.692746	-1.579852	21.255000
13.724259	-1.584280	21.301000
13.755048	-1.584447	21.348000
13.859007	-1.588503	21.393000
13.890070	-1.592204	21.549000
13.920585	-1.592504	21.596000
14.025853	-1.589323	21.642000
14.055925	-1.591923	21.799000
14.086961	-1.590967	21.845000
14.117554	-1.593358	21.892000
14.148911	-1.597766	21.939000
14.179884	-1.596779	21.985000
14.211468	-1.592214	22.031000
14.242140	-1.595270	22.078000
14.272932	-1.597943	22.124000
14.304184	-1.593897	22.170000
14.334741	-1.599107	22.216000
14.365063	-1.602840	22.262000
14.395348	-1.599990	22.309000
14.426540	-1.603880	22.355000
14.457899	-1.610272	22.401000
14.488955	-1.616719	22.447000
14.734214	-1.607623	22.493000
14.764627	-1.623312	22.862000
14.796893	-1.625557	22.909000
14.827568	-1.621647	22.955000
14.859178	-1.617104	23.002000
14.889222	-1.612405	23.048000
14.920574	-1.612903	23.094000
14.950858	-1.607518	23.141000
14.981616	-1.606375	23.187000
15.012385	-1.599875	23.233000
15.044448	-1.596018	23.279000
15.075511	-1.593970	23.326000
15.105748	-1.588948	23.372000
15.137161	-1.585455	23.417000
15.168150	-1.582920	23.464000
15.198859	-1.578531	23.510000
15.228275	-1.581130	23.557000
15.333235	-1.572076	23.603000
15.363966	-1.567407	23.759000
15.395721	-1.563081	23.805000
15.640440	-1.597609	23.852000
15.671998	-1.601300	24.219000
15.701699	-1.605022	24.265000
15.733196	-1.613787	24.312000
15.763499	-1.623663	24.358000
15.794020	-1.625762	24.404000
15.824231	-1.636826	24.450000
15.855876	-1.639165	24.496000
15.886542	-1.650694	24.543000
15.917856	-1.656466	24.589000
15.948091	-1.666144	24.634000
16.057732	-1.681107	24.681000
16.090099	-1.710404	24.847000
16.120461	-1.717463	24.893000
16.227294	-1.701131	24.939000
16.258083	-1.693407	25.099000
16.287786	-1.686118	25.144000
16.319205	-1.679101	25.191000
16.349420	-1.673329	25.237000
16.379962	-1.669483	25.283000
16.410890	-1.670481	25.329000
16.441858	-1.665876	25.375000
16.473245	-1.671739	25.421000
16.504292	-1.674131	25.468000
16.534578	-1.675129	25.514000
16.565424	-1.678163	25.560000
16.595239	-1.674545	25.606000
16.626334	-1.675866	25.652000
16.657162	-1.675876	25.699000
16.688893	-1.670231	25.745000
16.793716	-1.667123	25.792000
16.824369	-1.669223	25.948000
16.855864	-1.672185	25.994000
16.960443	-1.693459	26.041000
16.990883	-1.695611	26.199000
17.020962	-1.701381	26.245000
17.052355	-1.710728	26.292000
17.084136	-1.715385	26.338000
17.114687	-1.722434	26.384000
17.146122	-1.729660	26.431000
17.176719	-1.731978	26.477000
17.208323	-1.736096	26.523000
17.238706	-1.735201	26.570000
17.269073	-1.728464	26.616000
17.300035	-1.732134	26.662000
17.330484	-1.718795	26.709000
17.361291	-1.710925	26.755000
17.392824	-1.699956	26.801000
17.423865	-1.686170	26.848000
17.528245	-1.672092	26.894000
17.559423	-1.593886	27.050000
17.589797	-1.563205	27.096000
17.693163	-1.477499	27.143000
17.723728	-1.455788	27.299000
17.755122	-1.448318	27.345000
17.787001	-1.437515	27.391000
17.817372	-1.437317	27.438000
17.847606	-1.420784	27.484000
17.879149	-1.430931	27.530000
17.909815	-1.423212	27.576000
17.940295	-1.422337	27.623000
17.970536	-1.419013	27.669000
18.001753	-1.422316	27.715000
18.033196	-1.428098	27.761000
18.064283	-1.441317	27.808000
18.095761	-1.452860	27.854000
18.126606	-1.457767	27.901000
18.158093	-1.469206	27.947000
18.403139	-1.479781	27.994000
18.434005	-1.504470	28.361000
18.464501	-1.508971	28.408000
18.495231	-1.513753	28.455000
18.525214	-1.518732	28.501000
18.556474	-1.523598	28.547000
18.587580	-1.524920	28.594000
18.619046	-1.529338	28.640000
18.650431	-1.532537	28.687000
18.681115	-1.532620	28.733000
18.712846	-1.534046	28.779000
18.743476	-1.527536	28.826000
18.774066	-1.534567	28.872000
18.804246	-1.526828	28.918000
18.835821	-1.525504	28.965000
18.866363	-1.518108	29.010000
18.897629	-1.506960	29.057000
19.001892	-1.498813	29.104000
19.032787	-1.431920	29.260000
19.064589	-1.406314	29.306000
19.308402	-1.288316	29.352000
19.338805	-1.277201	29.719000
19.369814	-1.264733	29.766000
19.399939	-1.249732	29.812000
19.431645	-1.242527	29.858000
19.462561	-1.226598	29.905000
19.493932	-1.210326	29.951000
19.524958	-1.192683	29.997000
19.556215	-1.185655	30.044000
19.587135	-1.167126	30.089000
19.617327	-1.157550	30.137000
19.726791	-1.146688	30.183000
19.756766	-1.130053	30.346000
19.787375	-1.130759	30.392000
19.895020	-1.158239	30.438000
19.925679	-1.171847	30.599000
19.956667	-1.185895	30.645000
19.986090	-1.196229	30.691000
20.018142	-1.207738	30.738000
20.048862	-1.224790	30.784000
20.080626	-1.220619	30.830000
20.111075	-1.227380	30.877000
20.142827	-1.224300	30.923000
20.173133	-1.219246	30.970000
20.203938	-1.206553	31.016000
20.233325	-1.194513	31.062000
20.264952	-1.182350	31.108000
20.295920	-1.170735	31.155000
20.326977	-1.160068	31.201000
20.358494	-1.150648	31.247000
20.461324	-1.143050	31.294000
20.493074	-1.133672	31.449000
20.522613	-1.134670	31.495000
20.627972	-1.132890	31.541000
20.658625	-1.136862	31.698000
20.688660	-1.141551	31.745000
20.720371	-1.148923	31.791000
20.751386	-1.150223	31.837000
20.782947	-1.153705	31.883000
20.812431	-1.158332	31.930000
20.844367	-1.156928	31.976000
20.874296	-1.150616	32.023000
20.905295	-1.146946	32.069000
20.935864	-1.138361	32.116000
20.967612	-1.132942	32.162000
20.998710	-1.133285	32.209000
21.029992	-1.132518	32.255000
21.060676	-1.132622	32.301000
21.091623	-1.136237	32.347000
21.194479	-1.150845	32.393000
21.224604	-1.192871	32.548000
21.256586	-1.206169	32.595000
21.361727	-1.236548	32.641000
21.392732	-1.243785	32.799000
21.424405	-1.256054	32.846000
21.455277	-1.268342	32.892000
21.486787	-1.279998	32.938000
21.516539	-1.296539	32.985000
21.546844	-1.311458	33.031000
21.577713	-1.332439	33.077000
21.608708	-1.349274	33.124000
21.638714	-1.364985	33.170000
21.671215	-1.381684	33.216000
21.702285	-1.397113	33.263000
21.733913	-1.408313	33.310000
21.763746	-1.417230	33.356000
21.795381	-1.421429	33.402000
21.825391	-1.429555	33.448000
22.070604	-1.438711	33.494000
22.101457	-1.388790	33.862000
22.132183	-1.375623	33.909000
22.163230	-1.364559	33.955000
22.194948	-1.349067	34.002000
22.225845	-1.332856	34.048000
22.257253	-1.325350	34.095000
22.287503	-1.319455	34.141000
22.319128	-1.313651	34.187000
22.348920	-1.305188	34.233000
22.379873	-1.291049	34.280000
22.410843	-1.286287	34.326000
22.441804	-1.289488	34.373000
22.472470	-1.285932	34.419000
22.504122	-1.275641	34.465000
22.535050	-1.266023	34.511000
22.565799	-1.263123	34.558000
22.669795	-1.256344	34.604000
22.700179	-1.228750	34.760000
22.730054	-1.206354	34.805000
22.974594	-1.122858	34.852000
23.006136	-1.124770	35.218000
23.036868	-1.123637	35.265000
23.067911	-1.096306	35.311000
23.099198	-1.067750	35.357000
23.130443	-1.025391	35.404000
23.161012	-1.001253	35.450000
23.190167	-0.983346	35.496000
23.221100	-0.974438	35.542000
23.251799	-0.964676	35.588000
23.282846	-0.951092	35.634000
23.394347	-0.946602	35.680000
23.424575	-0.939309	35.847000
23.455617	-0.939778	35.893000
23.561775	-0.938163	35.940000
23.593381	-0.936476	36.099000
23.624249	-0.935080	36.145000
23.655532	-0.937830	36.191000
23.686890	-0.940310	36.238000
23.717818	-0.945696	36.284000
23.748531	-0.951998	36.331000
23.778495	-0.965584	36.377000
23.808886	-0.980471	36.423000
23.840293	-0.986930	36.469000
23.871195	-1.001119	36.516000
23.901785	-1.018526	36.562000
23.933193	-1.029986	36.608000
23.964225	-1.046623	36.655000
23.995539	-1.075418	36.701000
24.026071	-1.094733	36.748000
24.129846	-1.104141	36.794000
24.160086	-1.139638	36.950000
24.191432	-1.136862	36.996000
24.296258	-1.056468	37.043000
24.327091	-1.037601	37.199000
24.358396	-1.011629	37.245000
24.389337	-0.992596	37.292000
24.419821	-0.969854	37.338000
24.449846	-0.952665	37.384000
24.480413	-0.933944	37.431000
24.511400	-0.920463	37.476000
24.542829	-0.904221	37.523000
24.573625	-0.889130	37.569000
24.604873	-0.871422	37.616000
24.635694	-0.855836	37.662000
24.666921	-0.846261	37.708000
24.697812	-0.835812	37.754000
24.728003	-0.833463	37.801000
24.758631	-0.836553	37.847000
24.861489	-0.831882	37.893000
24.893919	-0.832924	38.049000
24.924565	-0.835708	38.095000
25.030037	-0.866370	38.142000
25.061173	-0.877027	38.299000
25.090084	-0.886134	38.345000
25.121520	-0.889662	38.391000
25.152429	-0.892997	38.438000
25.183718	-0.895483	38.484000
25.213931	-0.901075	38.530000
25.246015	-0.904013	38.577000
25.277095	-0.906888	38.623000
25.308182	-0.904648	38.670000
25.339373	-0.907784	38.716000
25.370280	-0.908118	38.763000
25.400678	-0.907544	38.809000
25.430549	-0.904315	38.855000
25.461035	-0.909107	38.901000
25.492166	-0.913598	38.947000
25.738051	-0.916348	38.994000
25.769647	-0.970697	39.362000
25.799595	-0.991877	39.409000
25.831756	-1.013410	39.455000
25.862421	-1.035861	39.501000
25.893560	-1.058186	39.547000
25.922413	-1.078855	39.594000
25.954013	-1.092232	39.640000
25.984346	-1.089627	39.686000
26.015427	-1.078480	39.732000
26.045892	-1.061656	39.777000
26.077569	-1.040529	39.824000
26.108894	-1.017671	39.870000
26.140076	-1.004733	39.917000
26.171100	-0.993087	39.963000
26.201930	-0.982335	40.010000
26.231962	-0.964593	40.056000
26.335654	-0.949237	40.102000
26.366601	-0.904888	40.257000
26.396667	-0.901357	40.303000
26.642159	-0.843423	40.350000
26.673481	-0.820685	40.717000
26.704537	-0.800442	40.763000
26.735029	-0.785698	40.810000
26.764608	-0.767732	40.856000
26.795519	-0.754040	40.902000
26.826881	-0.741698	40.948000
26.857663	-0.728080	40.995000
26.889507	-0.708845	41.041000
26.920509	-0.688394	41.088000
26.951664	-0.671130	41.134000
27.061797	-0.648794	41.180000
27.092411	-0.565317	41.347000
27.124350	-0.538105	41.393000
27.230377	-0.436504	41.440000
27.261426	-0.404866	41.599000
27.292210	-0.375452	41.645000
27.323186	-0.343345	41.691000
27.352598	-0.307625	41.737000
27.383378	-0.270246	41.783000
27.414696	-0.235851	41.830000
27.445629	-0.205223	41.876000
27.476669	-0.175917	41.923000
27.508017	-0.160852	41.969000
27.539368	-0.143944	42.016000
27.570547	-0.132433	42.062000
27.602161	-0.119952	42.109000
27.632155	-0.109920	42.154000
27.661921	-0.104357	42.200000
27.692138	-0.097898	42.246000
27.795976	-0.093491	42.292000
27.827103	-0.094888	42.448000
27.858248	-0.095961	42.493000
27.964292	-0.100606	42.540000
27.995582	-0.109399	42.699000
28.025876	-0.112264	42.746000
28.055809	-0.114212	42.792000
28.087258	-0.115108	42.838000
28.118666	-0.118368	42.884000
28.148748	-0.114972	42.931000
28.179269	-0.110868	42.976000
28.210600	-0.105055	43.023000
28.241830	-0.097522	43.069000
28.272711	-0.085292	43.115000
28.302248	-0.082801	43.162000
28.333641	-0.074343	43.208000
28.364142	-0.069353	43.253000
28.394705	-0.061153	43.300000
28.425650	-0.057986	43.347000
28.530860	-0.060570	43.393000
28.562201	-0.051694	43.549000
28.593109	-0.045860	43.596000
28.697069	-0.025594	43.641000
28.726982	-0.019043	43.799000
28.758452	-0.010941	43.845000
28.789170	-0.006877	43.891000
28.820094	-0.000048	43.937000
28.851089	0.008064	43.983000
28.881589	0.011401	44.029000
28.913039	0.014759	44.076000
28.943619	0.021133	44.122000
28.973700	0.030052	44.168000
29.004140	0.038412	44.215000
29.035955	0.036986	44.261000
29.067398	0.044181	44.308000
29.098256	0.047893	44.354000
29.128387	0.043215	44.400000
29.159716	0.035617	44.445000
29.405353	0.035738	44.492000
29.475097	-0.025227	44.860000
29.505900	-0.026621	44.966000
29.537097	-0.015639	45.013000
29.567896	-0.008944	45.059000
29.598791	-0.002976	45.106000
29.630457	0.011215	45.152000
29.661504	0.019067	45.198000
29.692675	0.040555	45.245000
29.721790	0.053292	45.291000
29.753478	0.076624	45.337000
29.783663	0.089996	45.383000
29.814750	0.107079	45.430000
29.845228	0.122487	45.476000
29.876952	0.138997	45.522000
29.995811	0.150828	45.568000
30.026523	0.182475	45.747000
30.055173	0.186274	45.792000
30.302659	0.151480	45.839000
30.333981	0.136862	46.212000
30.365153	0.128482	46.258000
30.396332	0.121206	46.305000
30.426561	0.102511	46.351000
30.458403	0.090814	46.397000
30.488228	0.071030	46.443000
30.519004	0.057294	46.489000
30.548680	0.048510	46.535000
30.580447	0.037780	46.582000
30.610812	0.029244	46.627000
30.726894	0.019731	46.674000
30.758338	-0.000783	46.847000
30.788693	-0.001272	46.893000
30.895641	-0.024414	46.939000
30.925962	-0.035523	47.099000
30.956804	-0.041628	47.146000
30.987017	-0.054161	47.192000
31.017810	-0.073747	47.238000
31.049255	-0.086321	47.285000
31.080636	-0.099458	47.331000
31.111714	-0.108458	47.378000
31.142227	-0.118919	47.424000
31.174395	-0.130337	47.471000
31.205039	-0.141107	47.516000
31.235412	-0.157943	47.563000
31.264881	-0.169340	47.609000
31.296508	-0.186623	47.656000
31.327730	-0.201531	47.702000
31.358560	-0.216449	47.748000
31.462763	-0.230347	47.794000
31.493134	-0.279871	47.950000
31.524972	-0.296037	47.997000
31.628050	-0.334798	48.043000
31.658960	-0.347190	48.199000
31.689997	-0.357120	48.245000
31.720628	-0.364221	48.292000
31.751988	-0.374982	48.338000
31.782887	-0.384735	48.384000
31.814216	-0.396118	48.430000
31.844861	-0.400630	48.477000
31.875447	-0.405569	48.523000
31.905705	-0.418440	48.569000
31.936335	-0.424376	48.615000
31.967272	-0.429294	48.662000
31.998350	-0.438018	48.708000
32.029259	-0.443955	48.754000
32.060851	-0.445495	48.801000
32.091548	-0.444341	48.847000
32.240381	-0.443902	48.894000
32.271998	-0.445940	49.116000
32.373935	-0.443061	49.163000
32.404542	-0.433912	49.318000
32.435425	-0.426415	49.363000
32.466217	-0.421227	49.409000
32.496612	-0.413607	49.455000
32.527642	-0.407587	49.500000
32.556428	-0.406360	49.545000
32.587027	-0.406193	49.591000
32.618119	-0.395920	49.637000
32.648122	-0.394508	49.682000
32.678856	-0.395662	49.729000
32.710078	-0.401109	49.774000
32.741480	-0.407098	49.821000
32.771008	-0.411255	49.866000
32.801108	-0.413980	49.912000
32.831665	-0.427746	49.958000
33.077224	-0.419635	50.004000
33.108373	-0.436220	50.372000
33.139307	-0.433943	50.418000
33.170071	-0.430896	50.465000
33.201485	-0.427778	50.511000
33.232530	-0.421924	50.557000
33.263490	-0.422297	50.604000
33.292930	-0.423068	50.650000
33.324770	-0.421985	50.697000
33.355454	-0.424201	50.743000
33.386587	-0.428984	50.790000
33.417075	-0.431800	50.836000
33.448739	-0.436739	50.883000
33.480256	-0.445286	50.929000
33.510637	-0.459542	50.976000
33.542166	-0.466021	51.022000
33.660679	-0.472792	51.068000
33.692700	-0.500170	51.247000
33.723176	-0.504098	51.294000
33.971121	-0.481221	51.340000
34.001755	-0.475449	51.712000
34.033304	-0.463367	51.758000
34.064233	-0.445547	51.804000
34.094314	-0.438602	51.851000
34.124191	-0.418993	51.897000
34.155916	-0.409209	51.943000
34.187027	-0.407794	51.990000
34.218283	-0.409782	52.036000
34.248802	-0.416237	52.083000
34.280465	-0.425304	52.129000
34.395398	-0.439100	52.176000
34.424810	-0.488826	52.347000
34.455475	-0.500442	52.392000
34.562229	-0.494951	52.439000
34.592532	-0.479012	52.599000
34.624111	-0.454392	52.645000
34.654722	-0.434525	52.691000
34.686455	-0.406702	52.738000
34.716290	-0.373932	52.784000
34.748234	-0.350964	52.830000
34.778872	-0.320742	52.877000
34.809675	-0.294791	52.923000
34.839102	-0.284341	52.969000
34.871027	-0.263570	53.016000
34.901669	-0.252029	53.061000
34.933036	-0.242755	53.108000
34.964227	-0.234618	53.154000
34.995303	-0.223034	53.201000
35.026406	-0.219857	53.247000
35.129702	-0.213366	53.294000
35.160305	-0.182852	53.449000
35.190455	-0.184738	53.496000
35.295334	-0.147619	53.542000
35.326810	-0.137732	53.698000
35.357363	-0.122054	53.743000
35.388496	-0.109074	53.790000
35.417951	-0.097270	53.836000
35.449914	-0.085602	53.882000
35.479584	-0.071413	53.929000
35.510521	-0.064923	53.975000
35.540917	-0.053963	54.021000
35.572588	-0.048484	54.067000
35.603218	-0.050931	54.112000
35.634271	-0.044535	54.159000
35.664036	-0.041775	54.204000
35.695592	-0.037993	54.251000
35.725635	-0.035148	54.298000
35.756330	-0.037753	54.344000
35.861432	-0.034221	54.390000
35.892039	-0.035450	54.547000
35.923376	-0.040670	54.593000
36.030318	-0.039211	54.639000
36.060741	-0.028045	54.798000
36.090584	-0.013612	54.844000
36.119819	-0.000627	54.889000
36.150860	0.012765	54.935000
36.181360	0.020448	54.980000
36.212059	0.028557	55.026000
36.241986	0.028536	55.072000
36.273657	0.024513	55.117000
36.303792	0.020645	55.164000
36.333992	0.018587	55.210000
36.364541	0.018004	55.256000
36.395943	0.023733	55.302000
36.426516	0.036064	55.348000
36.457691	0.064978	55.394000
36.487522	0.103988	55.440000
36.736186	0.146117	55.486000
36.767285	0.298932	55.860000
36.798491	0.301027	55.905000
36.829801	0.309298	55.952000
36.861054	0.310965	55.998000
36.892099	0.307683	56.045000
36.922060	0.302641	56.091000
36.952187	0.299974	56.137000
36.983735	0.287776	56.184000
37.014769	0.276212	56.231000
37.045772	0.268097	56.277000
37.076429	0.258199	56.323000
37.108219	0.250126	56.369000
37.138680	0.231873	56.416000
37.169533	0.227029	56.462000
37.198653	0.217769	56.507000
37.229241	0.208808	56.552000
37.333248	0.200505	56.598000
37.364308	0.168471	56.755000
37.395887	0.165413	56.801000
37.640498	0.175487	56.847000
37.671501	0.187419	57.214000
37.702669	0.205339	57.261000
37.733452	0.233831	57.307000
37.763752	0.255033	57.353000
37.793925	0.279139	57.400000
37.825189	0.304547	57.446000
37.856806	0.323508	57.491000
37.887333	0.348240	57.538000
37.918001	0.368597	57.584000
37.949657	0.388296	57.631000
38.061217	0.402414	57.677000
38.092404	0.451386	57.847000
38.123833	0.457778	57.893000
38.230326	0.509610	57.940000
38.261759	0.532564	58.100000
38.292651	0.553745	58.146000
38.323872	0.572583	58.193000
38.354848	0.582469	58.239000
38.385743	0.594145	58.285000
38.416588	0.607380	58.331000
38.446850	0.626742	58.377000
38.477219	0.653443	58.424000
38.507637	0.679207	58.469000
38.539301	0.707169	58.516000
38.570281	0.740796	58.562000
38.601806	0.768633	58.609000
38.631864	0.785854	58.655000
38.663662	0.793053	58.701000
38.693831	0.804762	58.747000
38.797238	0.811617	58.794000
38.827918	0.797490	58.949000
38.858552	0.784250	58.996000
38.964807	0.748496	59.042000
38.995618	0.742693	59.200000
39.026870	0.738317	59.246000
39.057439	0.730588	59.293000
39.087819	0.729128	59.339000
39.117158	0.724484	59.385000
39.149486	0.725234	59.431000
39.180059	0.723609	59.478000
39.211438	0.716743	59.524000
39.242087	0.710294	59.570000
39.273378	0.702554	59.616000
39.303874	0.699147	59.662000
39.334470	0.685979	59.708000
39.364969	0.688417	59.754000
39.395376	0.686875	59.801000
39.426283	0.690678	59.846000
39.530705	0.687636	59.894000
39.562714	0.689323	60.050000
39.592822	0.693178	60.096000
39.697471	0.710211	60.142000
39.729269	0.712929	60.300000
39.759361	0.716847	60.346000
39.790145	0.719785	60.393000
39.820298	0.722066	60.438000
39.852273	0.734858	60.485000
39.882765	0.750203	60.531000
39.914140	0.770206	60.577000
39.944985	0.790896	60.624000
39.975877	0.806127	60.670000
40.006657	0.824911	60.717000
40.037767	0.838198	60.763000
40.067656	0.841172	60.810000
40.098943	0.846286	60.856000
40.129684	0.842087	60.902000
40.160929	0.835763	60.948000
40.405386	0.830253	60.994000
40.437322	0.954914	61.362000
40.467987	0.973660	61.408000
40.499159	0.987768	61.454000
40.528621	0.996720	61.501000
40.560242	0.994984	61.547000
40.591318	0.988695	61.593000
40.621863	0.977548	61.640000
40.652436	0.973868	61.686000
40.684053	0.973587	61.733000
40.715106	0.981448	61.779000
40.746735	0.985512	61.826000
40.777991	0.996752	61.872000
40.809036	1.027089	61.919000
40.839774	1.052469	61.965000
40.869240	1.078556	62.011000
40.899881	1.099715	62.058000
41.003808	1.130302	62.103000
41.035483	1.200601	62.259000
41.066340	1.213904	62.305000
41.311830	1.232374	62.352000
41.342256	1.227645	62.719000
41.373063	1.233218	62.765000
41.403847	1.227145	62.812000
41.434600	1.220613	62.858000
41.464911	1.212538	62.904000
41.496283	1.218467	62.950000
41.527032	1.225301	62.997000
41.558308	1.239324	63.043000
41.588553	1.255628	63.089000
41.620325	1.281090	63.136000
41.730417	1.302695	63.182000
41.760893	1.396860	63.347000
41.792403	1.411344	63.393000
41.899269	1.438126	63.440000
41.930014	1.427282	63.599000
41.960145	1.416482	63.646000
41.990352	1.406864	63.692000
42.021024	1.391725	63.738000
42.051462	1.377918	63.784000
42.082227	1.369611	63.830000
42.113795	1.366908	63.876000
42.145266	1.357435	63.923000
42.176207	1.358755	63.969000
42.207149	1.359213	64.015000
42.237406	1.357145	64.062000
42.268205	1.351300	64.108000
42.297921	1.345053	64.154000
42.329104	1.346549	64.200000
42.359984	1.345467	64.247000
42.464106	1.343607	64.293000
42.495643	1.340633	64.449000
42.526481	1.344792	64.495000
42.632190	1.352913	64.541000
42.660980	1.347435	64.699000
42.692512	1.346580	64.746000
42.723738	1.342579	64.792000
42.754537	1.331099	64.838000
42.785102	1.333720	64.885000
42.816696	1.329855	64.930000
42.848052	1.341384	64.977000
42.878763	1.356187	65.023000
42.908621	1.388057	65.069000
42.939877	1.421970	65.116000
42.970703	1.456811	65.162000
43.001145	1.495074	65.209000
43.032090	1.534203	65.255000
43.063896	1.574907	65.302000
43.094968	1.614161	65.348000
43.198768	1.648372	65.394000
43.229113	1.734756	65.549000
43.258495	1.751590	65.596000
43.364596	1.798521	65.642000
43.395606	1.818691	65.800000
43.426624	1.840410	65.846000
43.457715	1.856162	65.892000
43.488396	1.872390	65.939000
43.519444	1.897593	65.985000
43.550689	1.925676	66.031000
43.581035	1.947710	66.077000
43.610505	1.987809	66.123000
43.641911	2.025812	66.169000
43.672898	2.070443	66.216000
43.703713	2.111468	66.262000
43.734366	2.147239	66.308000
43.766471	2.188087	66.355000
43.797386	2.223666	66.401000
43.828677	2.259994	66.448000
44.073948	2.292628	66.494000
44.104125	2.505150	66.862000
44.134670	2.525455	66.908000
44.165035	2.544207	66.955000
44.196526	2.562038	67.001000
44.226860	2.581461	67.047000
44.258558	2.607776	67.093000
44.289745	2.639091	67.140000
44.320625	2.668817	67.186000
44.351712	2.699998	67.233000
44.382700	2.728485	67.279000
44.413046	2.751804	67.325000
44.442020	2.774782	67.371000
44.474571	2.803435	67.417000
44.505347	2.825574	67.464000
44.536596	2.857921	67.510000
44.566757	2.886049	67.556000
44.671210	2.918146	67.603000
44.701709	3.005921	67.758000
44.732393	3.026517	67.805000
44.977138	3.150324	67.851000
45.007699	3.184404	68.218000
45.038310	3.226193	68.264000
45.071291	3.268448	68.311000
45.101917	3.306338	68.358000
45.133569	3.341779	68.404000
45.163927	3.366583	68.450000
45.196067	3.400347	68.497000
45.227046	3.432117	68.543000
45.258084	3.466093	68.590000
45.287081	3.499998	68.636000
45.397738	3.528132	68.683000
45.429924	3.617679	68.847000
45.460408	3.636218	68.894000
45.566886	3.687945	68.940000
45.597193	3.707478	69.100000
45.627888	3.726271	69.146000
45.659283	3.741659	69.193000
45.689613	3.750742	69.239000
45.720647	3.754285	69.285000
45.750893	3.754003	69.331000
45.782691	3.751909	69.377000
45.813475	3.743242	69.423000
45.843901	3.736888	69.469000
45.873225	3.729543	69.516000
45.905169	3.724448	69.562000
45.936306	3.720968	69.608000
45.967647	3.723959	69.654000
45.997778	3.728189	69.701000
46.029015	3.736283	69.747000
46.133856	3.746460	69.793000
46.164547	3.811395	69.950000
46.195093	3.830835	69.996000
46.299665	3.909975	70.042000
46.330456	3.935352	70.199000
46.361858	3.961980	70.246000
46.392588	3.988741	70.292000
46.424344	4.015928	70.338000
46.454797	4.044436	70.385000
46.486088	4.065522	70.431000
46.516054	4.096169	70.478000
46.546323	4.118110	70.524000
46.576941	4.140081	70.570000
46.608409	4.166699	70.616000
46.639431	4.187418	70.663000
46.670530	4.213911	70.709000
46.700541	4.238956	70.755000
46.732028	4.263991	70.801000
46.763315	4.292340	70.847000
46.865989	4.322281	70.894000
46.897284	4.428672	71.050000
46.928037	4.465945	71.096000
47.032962	4.584769	71.143000
47.063911	4.625971	71.299000
47.095202	4.661183	71.346000
47.126973	4.700469	71.392000
47.157177	4.742810	71.439000
47.186589	4.784793	71.485000
47.217776	4.830779	71.531000
47.249075	4.879644	71.577000
47.279659	4.931305	71.623000
47.310834	4.984243	71.670000
47.342167	5.040873	71.717000
47.373508	5.098902	71.763000
47.404918	5.154534	71.809000
47.435483	5.211923	71.856000
47.466747	5.266393	71.902000
47.496839	5.322892	71.949000
47.742072	5.376060	71.994000
47.772449	5.835468	72.363000
47.804047	5.903474	72.410000
47.834838	5.973067	72.456000
47.866014	6.036962	72.502000
47.896452	6.105114	72.549000
47.927770	6.168153	72.595000
47.959740	6.227424	72.641000
47.990651	6.288231	72.688000
48.020194	6.341630	72.734000
48.051946	6.395699	72.780000
48.081719	6.442832	72.827000
48.112730	6.486903	72.873000
48.144051	6.525300	72.919000
48.175530	6.566628	72.966000
48.206322	6.606710	73.012000
48.237855	6.648306	73.058000
48.341597	6.693016	73.105000
48.370606	6.890706	73.261000
48.401896	6.964472	73.307000
48.646883	7.636843	73.353000
48.677652	7.716530	73.720000
48.709043	7.795911	73.766000
48.739857	7.888892	73.812000
48.770975	7.972456	73.859000
48.801724	8.065372	73.905000
48.832351	8.159237	73.951000
48.862677	8.248545	73.997000
48.893553	8.333676	74.043000
48.924237	8.417737	74.090000
48.955090	8.496173	74.136000
49.065885	8.570193	74.182000
49.095847	8.768294	74.348000
49.126846	8.819686	74.393000
49.233880	9.027713	74.439000
49.264822	9.096126	74.600000
49.295970	9.172523	74.646000
49.325663	9.259149	74.692000
49.357515	9.350618	74.738000
49.388383	9.444992	74.784000
49.419455	9.534923	74.830000
49.448714	9.620085	74.877000
49.480020	9.697722	74.923000
49.511107	9.776221	74.969000
49.541864	9.856428	75.015000
49.572790	9.933836	75.062000
49.603966	10.013301	75.108000
49.635664	10.102005	75.154000
49.666148	10.191914	75.201000
49.698038	10.277183	75.247000
49.799387	10.369255	75.294000
49.831503	10.694253	75.450000
49.862272	10.791570	75.496000
49.967793	11.148838	75.541000
49.999421	11.253284	75.700000
50.029675	11.356379	75.747000
50.061573	11.454542	75.793000
50.091834	11.561471	75.839000
50.122783	11.665922	75.885000
50.151719	11.772647	75.931000
50.183571	11.883102	75.978000
50.214151	11.997688	76.024000
50.245407	12.119087	76.070000
50.275799	12.249081	76.116000
50.307474	12.389765	76.162000
50.338339	12.541092	76.208000
50.369165	12.694761	76.255000
50.399322	12.836703	76.301000
50.430133	12.970753	76.347000
50.534378	13.106993	76.393000
50.565658	13.519914	76.550000
50.597033	13.637818	76.596000
50.701770	14.052659	76.642000
50.731847	14.172255	76.799000
50.762784	14.295783	76.846000
50.793049	14.408943	76.892000
50.823568	14.512712	76.937000
50.853822	14.622172	76.983000
50.885251	14.720282	77.029000
50.916100	14.820946	77.075000
50.946553	14.921406	77.121000
50.976653	15.019083	77.167000
51.007579	15.126215	77.213000
51.038229	15.233752	77.259000
51.069124	15.341674	77.306000
51.099692	15.439506	77.352000
51.131625	15.537501	77.398000
51.162505	15.639653	77.445000
51.408467	15.743959	77.491000
51.438832	16.873232	77.860000
51.470008	17.028435	77.906000
51.500796	17.172222	77.952000
51.531349	17.317241	77.998000
51.561349	17.466153	78.045000
51.592367	17.614974	78.091000
51.623485	17.771727	78.137000
51.654707	17.925272	78.184000
51.685037	18.084132	78.230000
51.716835	18.234914	78.276000
51.747899	18.380917	78.322000
51.778768	18.522175	78.369000
51.808845	18.664408	78.415000
51.839951	18.807614	78.461000
51.870777	18.962535	78.508000
51.901280	19.111532	78.554000
52.005952	19.273544	78.601000
52.036578	19.818125	78.756000
52.068284	19.977823	78.802000
52.312599	21.213464	78.849000
52.344205	21.370081	79.216000
52.374140	21.530473	79.262000
52.403775	21.687340	79.308000
52.434566	21.841886	79.355000
52.466226	21.997979	79.401000
52.497278	22.142746	79.447000
52.527889	22.294494	79.493000
52.559342	22.447394	79.540000
52.590855	22.604430	79.586000
52.621758	22.760016	79.633000
52.733153	22.917736	79.679000
52.763964	23.501852	79.847000
52.795339	23.672839	79.894000
52.901501	24.295020	79.940000
52.933503	24.479838	80.100000
52.964502	24.659126	80.146000
52.994978	24.838916	80.193000
53.025508	25.011496	80.239000
53.055996	25.179446	80.285000
53.085881	25.349294	80.331000
53.116423	25.522779	80.376000
53.147975	25.696181	80.423000
53.179573	25.874116	80.469000
53.210910	26.041796	80.516000
53.241344	26.201656	80.562000
53.272662	26.362036	80.609000
53.303265	26.519063	80.654000
53.333780	26.688890	80.701000
53.363358	26.863072	80.747000
53.468049	27.038420	80.793000
53.499823	27.648746	80.950000
53.530945	27.830660	80.996000
53.636405	28.444049	81.043000
53.667238	28.629962	81.200000
53.697818	28.820971	81.247000
53.727016	29.019615	81.293000
53.759006	29.223840	81.339000
53.789809	29.431312	81.385000
53.820738	29.633431	81.432000
53.851691	29.829190	81.477000
53.882936	30.012381	81.523000
53.914004	30.185063	81.570000
53.944596	30.351778	81.617000
53.976186	30.537141	81.663000
54.006351	30.729741	81.710000
54.036398	30.924593	81.756000
54.067081	31.132283	81.802000
54.098576	31.349082	81.848000
54.202483	31.578976	81.895000
54.233924	32.383560	82.049000
54.264458	32.619596	82.096000
54.369118	33.346057	82.143000
54.399126	33.563534	82.299000
54.430048	33.785027	82.346000
54.461335	34.009017	82.392000
54.491773	34.234067	82.439000
54.523310	34.460463	82.485000
54.554428	34.681708	82.532000
54.585546	34.907266	82.578000
54.616018	35.128107	82.624000
54.646234	35.348792	82.670000
54.676084	35.564052	82.716000
54.707832	35.767002	82.763000
54.738689	35.959273	82.809000
54.769472	36.148821	82.855000
54.801097	36.340961	82.901000
54.831923	36.529731	82.947000
55.077137	36.727749	82.994000
55.108509	38.308515	83.362000
55.138993	38.518399	83.408000
55.169980	38.727283	83.455000
55.199754	38.941245	83.501000
55.230833	39.154148	83.547000
55.261160	39.359191	83.593000
55.292985	39.553226	83.640000
55.324429	39.752600	83.686000
55.355831	39.945688	83.733000
55.386085	40.139338	83.778000
55.416558	40.322008	83.824000
55.447280	40.507397	83.871000
55.477706	40.684322	83.917000
55.508206	40.848873	83.963000
55.539608	41.010409	84.010000
55.570492	41.160782	84.055000
55.675240	41.300948	84.102000
55.706439	41.783925	84.259000
55.736385	41.940130	84.305000
55.982383	43.548945	84.351000
56.013120	43.798494	84.719000
56.043862	44.049653	84.766000
56.074023	44.297059	84.811000
56.104673	44.542882	84.857000
56.135867	44.794653	84.904000
56.167112	45.050617	84.950000
56.197577	45.315328	84.996000
56.229440	45.585141	85.043000
56.260543	45.871631	85.089000
56.291146	46.155462	85.136000
56.401438	46.434829	85.182000
56.432483	47.503357	85.347000
56.463590	47.801750	85.394000
