Sample	2mm tape 2
date	07/01/2025
	
Temperature (K)	77.00
Angle (deg.)	0.000000
field / T	0.020000
	
		
Approx. trace time (s)	60.0	
		
Current / A	V1  -sample/ uV	time/s
0.001625	-2.473979	0.000000
0.001637	-2.370049	0.046000
0.001362	-2.317866	0.093000
0.001535	-2.342479	0.139000
0.001314	-2.338364	0.185000
0.001422	-2.258336	0.341000
0.001303	-2.250637	0.387000
0.001392	-2.159815	0.433000
0.001482	-2.177506	0.480000
0.001828	-2.225102	0.526000
0.001888	-2.233871	0.573000
0.001792	-2.142234	0.618000
0.001822	-2.126662	0.665000
0.001685	-2.187157	0.711000
0.016196	-2.220849	0.756000
0.047216	-2.153831	0.802000
0.078634	-2.124409	0.849000
0.196552	-2.116381	0.894000
0.227561	-2.172025	1.072000
0.258322	-2.215505	1.118000
0.288343	-2.205336	1.164000
0.318538	-2.126326	1.210000
0.435981	-2.169729	1.256000
0.467218	-2.152573	1.432000
0.498155	-2.195686	1.479000
0.529167	-2.199853	1.525000
0.560252	-2.093902	1.571000
0.591095	-2.051185	1.617000
0.621673	-2.074627	1.662000
0.651397	-2.064537	1.709000
0.681137	-1.989321	1.755000
0.711955	-1.984338	1.799000
0.742602	-2.070419	1.845000
0.773822	-2.118804	1.891000
0.804598	-2.085311	1.937000
0.835704	-2.034005	1.983000
0.937359	-2.017047	2.030000
0.967903	-1.961919	2.184000
0.999376	-2.013926	2.230000
1.030030	-2.049421	2.276000
1.061677	-2.010583	2.321000
1.169843	-1.986834	2.368000
1.201168	-2.086909	2.532000
1.231932	-2.132227	2.578000
1.262502	-2.200267	2.623000
1.293161	-2.231940	2.669000
1.323751	-2.164472	2.716000
1.354512	-2.183460	2.763000
1.385186	-2.247773	2.809000
1.416393	-2.280199	2.855000
1.447030	-2.209523	2.902000
1.478529	-2.189186	2.948000
1.509134	-2.235080	2.994000
1.540654	-2.242872	3.040000
1.570944	-2.153649	3.087000
1.673691	-2.081176	3.133000
1.704525	-1.960804	3.287000
1.735648	-1.933563	3.334000
1.767425	-1.958535	3.380000
1.798222	-1.949246	3.426000
1.904242	-1.842686	3.473000
1.934696	-1.784405	3.632000
1.965578	-1.661066	3.678000
1.996832	-1.658372	3.724000
2.026289	-1.664220	3.771000
2.056674	-1.633044	3.817000
2.088379	-1.512591	3.863000
2.119696	-1.508318	3.909000
2.150457	-1.548026	3.955000
2.180940	-1.564283	4.001000
2.212737	-1.494118	4.047000
2.243191	-1.504162	4.094000
2.273266	-1.590190	4.139000
2.303365	-1.639962	4.186000
2.779718	-1.854561	4.232000
2.810574	-1.772677	4.944000
2.840842	-1.711951	4.990000
2.870808	-1.648054	5.037000
2.901649	-1.685695	5.083000
2.932365	-1.701635	5.129000
2.963546	-1.643220	5.175000
2.993940	-1.561903	5.220000
3.024911	-1.592167	5.266000
3.131081	-1.457101	5.313000
3.162857	-1.498626	5.473000
3.193950	-1.506070	5.519000
3.224383	-1.431173	5.565000
3.253749	-1.377527	5.611000
3.369887	-1.425554	5.658000
3.401812	-1.368069	5.832000
3.432536	-1.402001	5.878000
3.463558	-1.385767	5.924000
3.494499	-1.295376	5.970000
3.525317	-1.327103	6.016000
3.556076	-1.371165	6.063000
3.586210	-1.382321	6.109000
3.616818	-1.304327	6.155000
3.648008	-1.334560	6.202000
3.678613	-1.396997	6.248000
3.709520	-1.436095	6.293000
3.740935	-1.381324	6.340000
3.772381	-1.419606	6.386000
3.875658	-1.491658	6.433000
3.905446	-1.540617	6.587000
3.936251	-1.598909	6.634000
3.966508	-1.614966	6.679000
3.998203	-1.536736	6.726000
4.105230	-1.564114	6.771000
4.136306	-1.550722	6.932000
4.167652	-1.614460	6.979000
4.197764	-1.668588	7.025000
4.229570	-1.674575	7.072000
2.008719	-1.614226	7.118000
4.296354	-1.673752	7.164000
4.322513	-1.670187	7.211000
4.353108	-1.723121	7.257000
4.383440	-1.665437	7.303000
4.414224	-1.718582	7.348000
4.445330	-1.779792	7.395000
4.476567	-1.794596	7.442000
4.507006	-1.714837	7.488000
4.608770	-1.766155	7.534000
4.640053	-1.699223	7.689000
4.670575	-1.763029	7.734000
4.702270	-1.822824	7.782000
4.733130	-1.832346	7.828000
4.838760	-1.737878	7.875000
4.869869	-1.695828	8.032000
4.900235	-1.597183	8.078000
4.931277	-1.635893	8.125000
4.961595	-1.676068	8.171000
4.992413	-1.668429	8.217000
5.022959	-1.576567	8.264000
5.054789	-1.601438	8.310000
5.085547	-1.632886	8.356000
5.117156	-1.642916	8.403000
5.146868	-1.575213	8.449000
5.178255	-1.621505	8.495000
5.208472	-1.687863	8.541000
5.238245	-1.706417	8.587000
5.342412	-1.601764	8.633000
5.372972	-1.554371	8.787000
5.404598	-1.442477	8.834000
5.435096	-1.458054	8.880000
5.466220	-1.485689	8.926000
5.572330	-1.476029	8.973000
5.602206	-1.510428	9.132000
5.633155	-1.522442	9.179000
5.664035	-1.497194	9.225000
5.696013	-1.597130	9.272000
5.726058	-1.688361	9.318000
5.757433	-1.722391	9.364000
5.788111	-1.696294	9.410000
5.819891	-1.790026	9.457000
5.849841	-1.882515	9.503000
5.880870	-1.928886	9.549000
5.911234	-1.896968	9.596000
5.942054	-1.983375	9.642000
5.972429	-2.081671	9.688000
6.446451	-2.469972	9.734000
6.477279	-2.782122	10.445000
6.507810	-2.835407	10.491000
6.539314	-2.787340	10.537000
6.569625	-2.809077	10.582000
6.600727	-2.897175	10.629000
6.631792	-2.948260	10.675000
6.661988	-2.905458	10.720000
6.691500	-2.898837	10.766000
6.798711	-2.969713	10.812000
6.829398	-3.007775	10.973000
6.860390	-3.075261	11.019000
6.891355	-3.105207	11.064000
6.921944	-3.040780	11.111000
7.038594	-3.070628	11.158000
7.069748	-3.104953	11.332000
7.101430	-3.174867	11.379000
7.131951	-3.221407	11.425000
7.162934	-3.189841	11.472000
7.193832	-3.141548	11.518000
7.224214	-3.205946	11.564000
7.254465	-3.253823	11.611000
7.285532	-3.235702	11.657000
7.316954	-3.176318	11.703000
7.347935	-3.233868	11.750000
7.378523	-3.277709	11.795000
7.409531	-3.266062	11.841000
7.439994	-3.187433	11.887000
7.542119	-3.235490	11.933000
7.573589	-3.163934	12.088000
7.604406	-3.207888	12.134000
7.635674	-3.232679	12.181000
7.667106	-3.195163	12.227000
7.772983	-3.110722	12.273000
7.804112	-3.064488	12.432000
7.834666	-3.013392	12.479000
7.865127	-3.058868	12.525000
7.895936	-3.074784	12.572000
7.927349	-2.997494	12.618000
7.958062	-2.927221	12.664000
7.988501	-2.977236	12.711000
8.020088	-3.013498	12.757000
8.051378	-2.979361	12.804000
8.082441	-2.918938	12.850000
8.112964	-2.971786	12.897000
8.144310	-3.010187	12.943000
8.174189	-2.986098	12.989000
8.277890	-2.988700	13.035000
8.308460	-2.927620	13.190000
8.339977	-2.873055	13.237000
8.370682	-2.923602	13.283000
8.402351	-2.952006	13.329000
8.506311	-2.899005	13.375000
8.536664	-2.864563	13.532000
8.567964	-2.768178	13.579000
8.597784	-2.726651	13.625000
8.629283	-2.768623	13.671000
8.660552	-2.784105	13.717000
8.691940	-2.711859	13.763000
8.722069	-2.661299	13.810000
8.754218	-2.704087	13.857000
8.784576	-2.723342	13.903000
8.815159	-2.660472	13.950000
8.845457	-2.588004	13.996000
8.876494	-2.612832	14.042000
8.907637	-2.605057	14.089000
9.010728	-2.425096	14.135000
9.042198	-2.429369	14.289000
9.071717	-2.355699	14.335000
9.102882	-2.315299	14.381000
9.132719	-2.383058	14.427000
9.238984	-2.423795	14.473000
9.270411	-2.383376	14.632000
9.301145	-2.379709	14.679000
9.332845	-2.273411	14.725000
9.364042	-2.235927	14.772000
9.394831	-2.282437	14.818000
9.424057	-2.303698	14.864000
9.455417	-2.234166	14.910000
9.486075	-2.190189	14.956000
9.516774	-2.231728	15.003000
9.547091	-2.247579	15.048000
9.578948	-2.193893	15.095000
9.609545	-2.165274	15.141000
9.640650	-2.250253	15.187000
10.114067	-2.237156	15.233000
10.144677	-2.027393	15.944000
10.175504	-2.046688	15.990000
10.206899	-1.999201	16.036000
10.237182	-1.939628	16.083000
10.269388	-1.998547	16.129000
10.300206	-2.043060	16.176000
10.330714	-2.023891	16.223000
10.360556	-1.965565	16.269000
10.466222	-2.054052	16.315000
10.497044	-2.019841	16.473000
10.528468	-2.086042	16.519000
10.560081	-2.128385	16.566000
10.590737	-2.091646	16.612000
10.707241	-2.042384	16.659000
10.737282	-1.995859	16.832000
10.768252	-1.993012	16.878000
10.799146	-2.018561	16.925000
10.829474	-2.025807	16.972000
10.860439	-1.951218	17.018000
10.891449	-1.957813	17.064000
10.922683	-1.973199	17.110000
10.953085	-1.973030	17.156000
10.984564	-1.891209	17.202000
11.015540	-1.898400	17.248000
11.046366	-1.945512	17.295000
11.075378	-1.955289	17.342000
11.107604	-1.872282	17.388000
11.211077	-1.947899	17.434000
11.241780	-1.872440	17.589000
11.273866	-1.909967	17.636000
11.304511	-1.966646	17.682000
11.335563	-1.988685	17.728000
11.439510	-1.914432	17.775000
11.470446	-2.017207	17.932000
11.501887	-1.943010	17.979000
11.532784	-1.980679	18.025000
11.563777	-2.015692	18.072000
11.594942	-2.002690	18.119000
11.626991	-1.921188	18.165000
11.657193	-1.966858	18.211000
11.688445	-2.019912	18.258000
11.719343	-2.037412	18.304000
11.749277	-1.974080	18.350000
11.779224	-2.020677	18.396000
11.810203	-2.088390	18.442000
11.841526	-2.127901	18.488000
11.945364	-2.186350	18.534000
11.976260	-2.190359	18.689000
12.006223	-2.134235	18.735000
12.036125	-2.196935	18.781000
12.067527	-2.250644	18.828000
12.173814	-2.242478	18.874000
12.204499	-2.237389	19.032000
12.235438	-2.225228	19.078000
12.266268	-2.205355	19.125000
12.297512	-2.303719	19.172000
12.329597	-2.386525	19.218000
12.359112	-2.406504	19.264000
12.388576	-2.392793	19.310000
12.420208	-2.509659	19.357000
12.451228	-2.606971	19.403000
12.482042	-2.623360	19.449000
12.512852	-2.567693	19.495000
12.544354	-2.617894	19.542000
12.575937	-2.660968	19.588000
12.678643	-2.583965	19.634000
12.708132	-2.599143	19.789000
12.739013	-2.547932	19.835000
12.769961	-2.474465	19.882000
12.802058	-2.533417	19.928000
12.907428	-2.589984	19.975000
12.938672	-2.609912	20.133000
12.969510	-2.648435	20.179000
13.000767	-2.598341	20.225000
13.031243	-2.578726	20.271000
13.061535	-2.645965	20.318000
13.092195	-2.688657	20.364000
13.122696	-2.645412	20.410000
13.153735	-2.603384	20.457000
13.184354	-2.658487	20.502000
13.215150	-2.690024	20.548000
13.246455	-2.653270	20.594000
13.277486	-2.598888	20.641000
13.308511	-2.664766	20.687000
13.782467	-2.720998	20.734000
13.813014	-2.556976	21.445000
13.844892	-2.565884	21.492000
13.875549	-2.513318	21.538000
13.906408	-2.430605	21.583000
13.935330	-2.462777	21.629000
13.967249	-2.480122	21.676000
13.997717	-2.440456	21.722000
14.028913	-2.340684	21.769000
14.134575	-2.267918	21.815000
14.164476	-2.214366	21.973000
14.196179	-2.260866	22.018000
14.227008	-2.278489	22.065000
14.257476	-2.215937	22.111000
14.374397	-2.136858	22.158000
14.403929	-2.053732	22.333000
14.435752	-2.074942	22.379000
14.466929	-2.105662	22.426000
14.498011	-2.094333	22.472000
14.528322	-1.989572	22.518000
14.559871	-1.982952	22.564000
14.590674	-2.004615	22.611000
14.622059	-1.986811	22.657000
14.651843	-1.869745	22.703000
14.683049	-1.832344	22.750000
14.713651	-1.861336	22.796000
14.744847	-1.858070	22.843000
14.775924	-1.759270	22.889000
14.879106	-1.762879	22.936000
14.911484	-1.672490	23.090000
14.941518	-1.688897	23.137000
14.972270	-1.736649	23.183000
15.001826	-1.751755	23.230000
15.108210	-1.678648	23.276000
15.139351	-1.778762	23.433000
15.170556	-1.716901	23.479000
15.201721	-1.769865	23.526000
15.232291	-1.817054	23.572000
15.264107	-1.809800	23.619000
15.293844	-1.732038	23.664000
15.324664	-1.768593	23.710000
15.354433	-1.801127	23.757000
15.385954	-1.783407	23.803000
15.416980	-1.684540	23.849000
15.447911	-1.698164	23.895000
15.478455	-1.720792	23.942000
15.509802	-1.700197	23.988000
15.612038	-1.611179	24.034000
15.642552	-1.568569	24.188000
15.673397	-1.472570	24.234000
15.704079	-1.496047	24.280000
15.735596	-1.505867	24.327000
15.841938	-1.469729	24.372000
15.873544	-1.475614	24.533000
15.905219	-1.424809	24.580000
15.935724	-1.392265	24.626000
15.966130	-1.471034	24.673000
15.996816	-1.532006	24.719000
16.027453	-1.517319	24.765000
16.057948	-1.492358	24.811000
16.089131	-1.569159	24.857000
16.120240	-1.621058	24.904000
16.151673	-1.584849	24.950000
16.182419	-1.519589	24.997000
16.213696	-1.563522	25.043000
16.244768	-1.590454	25.089000
16.346522	-1.536291	25.135000
16.378066	-1.562865	25.290000
16.409061	-1.499495	25.337000
16.440147	-1.446972	25.383000
16.470760	-1.489155	25.429000
16.576146	-1.512973	25.476000
16.606743	-1.476791	25.633000
16.637083	-1.485635	25.679000
16.667452	-1.388925	25.726000
16.698860	-1.362691	25.772000
16.729511	-1.422582	25.818000
16.760345	-1.460981	25.863000
16.791131	-1.408691	25.910000
16.822454	-1.399509	25.956000
16.853586	-1.463981	26.002000
16.884116	-1.486971	26.049000
16.913847	-1.418394	26.095000
16.944435	-1.381184	26.141000
16.975666	-1.445339	26.188000
17.451053	-1.469113	26.234000
17.481528	-1.435510	26.945000
17.512963	-1.435510	26.992000
17.543097	-1.355777	27.038000
17.573205	-1.287335	27.084000
17.604799	-1.334547	27.131000
17.635472	-1.371343	27.177000
17.667174	-1.338323	27.223000
17.697863	-1.299713	27.270000
17.802664	-1.368077	27.315000
17.833661	-1.362287	27.472000
17.862900	-1.421012	27.519000
17.894024	-1.442571	27.565000
17.924953	-1.368437	27.611000
18.042218	-1.335417	27.657000
18.073379	-1.302853	27.833000
18.104172	-1.348884	27.879000
18.135772	-1.379593	27.925000
18.166189	-1.348384	27.972000
18.197635	-1.256722	28.019000
18.228894	-1.290457	28.065000
18.258379	-1.320508	28.111000
18.288886	-1.299788	28.157000
18.319795	-1.209719	28.203000
18.351268	-1.252434	28.250000
18.382221	-1.295197	28.297000
18.413145	-1.286276	28.342000
18.443915	-1.187123	28.388000
18.546858	-1.189683	28.435000
18.576409	-1.090920	28.589000
18.608479	-1.112689	28.635000
18.639138	-1.135937	28.682000
18.671198	-1.107388	28.728000
18.776843	-1.010169	28.775000
18.806895	-1.016426	28.932000
18.838299	-0.959269	28.978000
18.869093	-0.996139	29.025000
18.900138	-1.016416	29.072000
18.929450	-0.968368	29.118000
18.961071	-0.912749	29.164000
18.991736	-0.974507	29.211000
19.023549	-1.011240	29.257000
19.054260	-0.984879	29.304000
19.085709	-0.915210	29.350000
19.116429	-0.963224	29.396000
19.146723	-1.002631	29.442000
19.177426	-0.983202	29.488000
19.279627	-1.016902	29.534000
19.311756	-0.983976	29.689000
19.342517	-0.958547	29.736000
19.374088	-1.033847	29.782000
19.404393	-1.085277	29.828000
19.509901	-1.063391	29.874000
19.541080	-1.147625	30.032000
19.571293	-1.077122	30.079000
19.601691	-1.070399	30.125000
19.631664	-1.132697	30.171000
19.663637	-1.155472	30.217000
19.694553	-1.079126	30.264000
19.725677	-1.049414	30.310000
19.755783	-1.101247	30.356000
19.787287	-1.114429	30.402000
19.817191	-1.044546	30.447000
19.847589	-0.994325	30.494000
19.877589	-1.033816	30.539000
19.908803	-1.042044	30.586000
20.012942	-0.919047	30.631000
20.043403	-0.911784	30.786000
20.073836	-0.819752	30.832000
20.102869	-0.788832	30.877000
20.134368	-0.838200	30.923000
20.243018	-0.861379	30.969000
20.273642	-0.837142	31.133000
20.304794	-0.826681	31.179000
20.335480	-0.746126	31.225000
20.367261	-0.783004	31.272000
20.397321	-0.831802	31.317000
20.428708	-0.850780	31.363000
20.457935	-0.776410	31.409000
20.488567	-0.787951	31.455000
20.518250	-0.824629	31.501000
20.549328	-0.812039	31.546000
20.579630	-0.694017	31.592000
20.611499	-0.636906	31.637000
20.641839	-0.645940	31.684000
20.886759	-0.425603	31.730000
21.132328	-0.463151	32.097000
21.162045	-0.568667	32.465000
21.192994	-0.559569	32.511000
21.222699	-0.490420	32.557000
21.254329	-0.537110	32.603000
21.284963	-0.583429	32.649000
21.315957	-0.581171	32.695000
21.347303	-0.499804	32.742000
21.378141	-0.526070	32.788000
21.480219	-0.467636	32.833000
21.510953	-0.522105	32.988000
21.541710	-0.565487	33.035000
21.572582	-0.539317	33.081000
21.603544	-0.465277	33.127000
21.710631	-0.499751	33.173000
21.741163	-0.415661	33.332000
21.771607	-0.458949	33.379000
21.802799	-0.482711	33.425000
21.833998	-0.427222	33.472000
21.863433	-0.412962	33.518000
21.894039	-0.498946	33.564000
21.925821	-0.561744	33.610000
21.957460	-0.527387	33.657000
21.988061	-0.495659	33.703000
22.019319	-0.559304	33.749000
22.050441	-0.585126	33.796000
22.081822	-0.507174	33.843000
22.111651	-0.427879	33.889000
22.214967	-0.440391	33.936000
22.245201	-0.431832	34.090000
22.276949	-0.476029	34.136000
22.308231	-0.485488	34.183000
22.338721	-0.391975	34.229000
22.444574	-0.342868	34.275000
22.474898	-0.265898	34.433000
22.505724	-0.279345	34.480000
22.536593	-0.330196	34.525000
22.567140	-0.339409	34.573000
22.598174	-0.244649	34.619000
22.629151	-0.249856	34.665000
22.660740	-0.298956	34.711000
22.691432	-0.312962	34.758000
22.721952	-0.228754	34.804000
22.753126	-0.231330	34.849000
22.783800	-0.273283	34.897000
22.813541	-0.286949	34.942000
22.844031	-0.218096	34.988000
22.947828	-0.319880	35.034000
22.978810	-0.242231	35.189000
23.009951	-0.267600	35.235000
23.039688	-0.310910	35.281000
23.070043	-0.313818	35.327000
23.176805	-0.230864	35.372000
23.206628	-0.294535	35.533000
23.238154	-0.242963	35.578000
23.268934	-0.314062	35.623000
23.299786	-0.376189	35.670000
23.330146	-0.381460	35.715000
23.362145	-0.313683	35.763000
23.392412	-0.372730	35.809000
23.422535	-0.431264	35.855000
23.453066	-0.441427	35.902000
23.484600	-0.369390	35.948000
23.515523	-0.407695	35.994000
23.546277	-0.454725	36.041000
23.577605	-0.448865	36.087000
23.681433	-0.426790	36.133000
23.712317	-0.397878	36.289000
23.742501	-0.324029	36.335000
23.773667	-0.362494	36.382000
23.804630	-0.389478	36.428000
23.910043	-0.360398	36.474000
23.941649	-0.348139	36.633000
23.972469	-0.282359	36.679000
24.003649	-0.227609	36.726000
24.034202	-0.262345	36.772000
24.066104	-0.267962	36.819000
24.095925	-0.193453	36.865000
24.126993	-0.133265	36.911000
24.156509	-0.178013	36.957000
24.188490	-0.209519	37.003000
24.219250	-0.162077	37.049000
24.250266	-0.083267	37.096000
24.281521	-0.107020	37.141000
24.312727	-0.118122	37.188000
24.785613	-0.043447	37.234000
24.817087	0.148677	37.946000
24.847167	0.218898	37.992000
24.879292	0.299924	38.038000
24.909855	0.269521	38.085000
24.941130	0.252947	38.131000
24.971019	0.312373	38.178000
25.002419	0.377366	38.224000
25.032504	0.317145	38.271000
25.137442	0.295808	38.317000
25.168453	0.213912	38.473000
25.199237	0.162532	38.519000
25.230937	0.196289	38.565000
25.261788	0.193383	38.612000
25.378390	0.098892	38.658000
25.407879	0.008722	38.833000
25.438165	-0.035701	38.879000
25.469746	-0.011452	38.925000
25.500420	0.043706	38.971000
25.532132	-0.023289	39.018000
25.562218	-0.071359	39.064000
25.593692	-0.055495	39.110000
25.624539	0.020792	39.157000
25.655784	-0.024569	39.203000
25.684737	-0.068326	39.249000
25.717103	-0.059959	39.296000
25.747226	0.013173	39.342000
25.778817	-0.021483	39.388000
25.882136	0.041419	39.435000
25.913214	-0.001150	39.589000
25.943931	-0.032082	39.635000
25.974714	0.000014	39.682000
26.005433	0.091997	39.728000
26.110917	0.070172	39.774000
26.141407	0.139325	39.933000
26.172294	0.070076	39.979000
26.203891	0.022599	40.026000
26.234796	0.065698	40.071000
26.265812	0.104015	40.118000
26.297114	0.049037	40.164000
26.327829	0.029942	40.211000
26.357854	0.098713	40.256000
26.388223	0.173982	40.303000
26.419116	0.133051	40.348000
26.449975	0.095922	40.395000
26.480879	0.126536	40.441000
26.511550	0.171834	40.487000
26.615009	0.145704	40.533000
26.644675	0.162429	40.688000
26.675715	0.101231	40.734000
26.707484	0.066005	40.781000
26.738150	0.116442	40.827000
26.844647	0.136817	40.873000
26.875354	0.160406	41.033000
26.907204	0.113863	41.080000
26.938648	0.049429	41.126000
26.968712	0.030610	41.172000
26.999052	0.093276	41.218000
27.030133	0.062462	41.265000
27.060483	0.027148	41.311000
27.091293	0.039802	41.357000
27.121814	0.133209	41.403000
27.153362	0.119554	41.449000
27.184665	0.062546	41.496000
27.215623	0.039929	41.542000
27.246192	0.109195	41.588000
27.348632	-0.013768	41.634000
27.380011	0.024378	41.790000
27.410724	-0.048537	41.835000
27.441536	-0.108567	41.881000
27.472331	-0.105619	41.928000
27.578311	-0.021269	41.974000
27.610161	0.030429	42.133000
27.641715	0.091003	42.180000
27.671936	0.060450	42.227000
27.701978	0.060864	42.273000
27.733242	0.145154	42.320000
27.764136	0.214476	42.366000
27.794998	0.171580	42.413000
27.826256	0.133060	42.459000
27.857032	0.167570	42.505000
27.888248	0.209757	42.551000
27.919119	0.154792	42.596000
27.948706	0.102713	42.643000
27.979874	0.117713	42.689000
28.453929	-0.046863	42.735000
28.484608	-0.200633	43.446000
28.516056	-0.181875	43.492000
28.545266	-0.252994	43.538000
28.576446	-0.292673	43.584000
28.606694	-0.228585	43.630000
28.638317	-0.149161	43.677000
28.668163	-0.174335	43.723000
28.700280	-0.184981	43.769000
28.805365	-0.128460	43.816000
28.836696	-0.137230	43.973000
28.868052	-0.054401	44.020000
28.897370	-0.034822	44.066000
28.928963	-0.091749	44.113000
29.045141	-0.119394	44.159000
29.075592	-0.152384	44.333000
29.106877	-0.106277	44.379000
29.137016	-0.042249	44.425000
29.168500	-0.093181	44.471000
29.199154	-0.136053	44.517000
29.230358	-0.110900	44.563000
29.260131	-0.048282	44.610000
29.290489	-0.098610	44.655000
29.321299	-0.136381	44.702000
29.352631	-0.103042	44.748000
29.383937	-0.043637	44.795000
29.414893	-0.095831	44.841000
29.445426	-0.128566	44.887000
29.547825	-0.050098	44.933000
29.578259	-0.097700	45.087000
29.608265	-0.073521	45.133000
29.640660	-0.052027	45.179000
29.671096	-0.134516	45.226000
29.778740	-0.186446	45.273000
29.809852	-0.203317	45.433000
29.839952	-0.231650	45.478000
29.871832	-0.151272	45.525000
29.902219	-0.147550	45.572000
29.933292	-0.200103	45.618000
29.962760	-0.222117	45.664000
29.993990	-0.149829	45.711000
30.024977	-0.158005	45.757000
30.053417	-0.216550	45.803000
30.083627	-0.237833	45.850000
30.115700	-0.161526	45.896000
30.146841	-0.166223	45.943000
30.178107	-0.233780	45.989000
30.279870	-0.249475	46.036000
30.310638	-0.309429	46.190000
30.341870	-0.316654	46.236000
30.372740	-0.261659	46.282000
30.403691	-0.314528	46.328000
30.509824	-0.381587	46.374000
30.540597	-0.428205	46.533000
30.571640	-0.481077	46.580000
30.601824	-0.449532	46.626000
30.632660	-0.404456	46.672000
30.662996	-0.459595	46.718000
30.694043	-0.494768	46.765000
30.725274	-0.454210	46.811000
30.756986	-0.393074	46.858000
30.787099	-0.451193	46.904000
30.818551	-0.499423	46.950000
30.849546	-0.476126	46.997000
30.879852	-0.416983	47.042000
30.909039	-0.467285	47.088000
31.013108	-0.466259	47.134000
31.044439	-0.543736	47.289000
31.075521	-0.592346	47.335000
31.106742	-0.552570	47.382000
31.136842	-0.548497	47.428000
31.243160	-0.626290	47.474000
31.273085	-0.643098	47.633000
31.303998	-0.693855	47.680000
31.335487	-0.694563	47.726000
31.366411	-0.620607	47.772000
31.396585	-0.637529	47.818000
31.428257	-0.663446	47.864000
31.458883	-0.639046	47.910000
31.489963	-0.553610	47.957000
31.519682	-0.571106	48.002000
31.550374	-0.608486	48.049000
31.581693	-0.609695	48.095000
31.612406	-0.522996	48.142000
31.643895	-0.532688	48.187000
32.118500	-0.489476	48.234000
32.148577	-0.418263	48.946000
32.179067	-0.454050	48.992000
32.209937	-0.439345	49.037000
32.240945	-0.367147	49.084000
32.272786	-0.406362	49.131000
32.303646	-0.456566	49.177000
32.334315	-0.460019	49.223000
32.365221	-0.398068	49.270000
32.469121	-0.430249	49.316000
32.500093	-0.375671	49.473000
32.530304	-0.422769	49.519000
32.561638	-0.453700	49.565000
32.591880	-0.422408	49.610000
32.709778	-0.371759	49.657000
32.741338	-0.436997	49.833000
32.771945	-0.494556	49.880000
32.802913	-0.549124	49.926000
32.833240	-0.548658	49.972000
32.864339	-0.483941	50.018000
32.894154	-0.531797	50.065000
32.924877	-0.584532	50.111000
32.956202	-0.582093	50.157000
32.987412	-0.510313	50.203000
33.018477	-0.544310	50.250000
33.048938	-0.585635	50.296000
33.080605	-0.575487	50.342000
33.110836	-0.510313	50.387000
33.213379	-0.517025	50.434000
33.243736	-0.466132	50.589000
33.275373	-0.527641	50.635000
33.306253	-0.571275	50.681000
33.337682	-0.539517	50.727000
33.443779	-0.486475	50.774000
33.474689	-0.527609	50.933000
33.505542	-0.528297	50.979000
33.535281	-0.586769	51.026000
33.566929	-0.605124	51.072000
33.597049	-0.530969	51.119000
33.628601	-0.521118	51.165000
33.659646	-0.588507	51.212000
33.691002	-0.624795	51.258000
33.721793	-0.567872	51.304000
33.752216	-0.557258	51.350000
33.782654	-0.618400	51.395000
33.813438	-0.644423	51.442000
33.843899	-0.582007	51.488000
33.948378	-0.676087	51.534000
33.979235	-0.600872	51.689000
34.009462	-0.624731	51.736000
34.041214	-0.684037	51.782000
34.071713	-0.691854	51.829000
34.177495	-0.605379	51.874000
34.207979	-0.555020	52.033000
34.237864	-0.467571	52.080000
34.269543	-0.502169	52.126000
34.300457	-0.535381	52.172000
34.330799	-0.517440	52.218000
34.361145	-0.453478	52.264000
34.393431	-0.507683	52.310000
34.423858	-0.560395	52.356000
34.454883	-0.553228	52.403000
34.483773	-0.495085	52.449000
34.515198	-0.549707	52.495000
34.546059	-0.606482	52.541000
34.577020	-0.607850	52.587000
34.680988	-0.657296	52.633000
34.709770	-0.618146	52.787000
34.741795	-0.580502	52.834000
34.772264	-0.638750	52.880000
34.803286	-0.666108	52.927000
34.910482	-0.604997	52.973000
34.940785	-0.596705	53.132000
34.972356	-0.514894	53.179000
35.002921	-0.521862	53.225000
35.035027	-0.563471	53.272000
35.064765	-0.562295	53.318000
35.096951	-0.473209	53.364000
35.126260	-0.471980	53.411000
35.157047	-0.504395	53.457000
35.187455	-0.502986	53.503000
35.218988	-0.414624	53.550000
35.249714	-0.409100	53.596000
35.280832	-0.457772	53.642000
35.311331	-0.481926	53.689000
35.784721	-0.601317	53.735000
35.816495	-0.664454	54.446000
35.847364	-0.574860	54.492000
35.878343	-0.608338	54.539000
35.909085	-0.664158	54.585000
35.940956	-0.680486	54.632000
35.971886	-0.631189	54.677000
36.001867	-0.684925	54.724000
36.032208	-0.750280	54.770000
36.136650	-0.751719	54.817000
36.167357	-0.788607	54.972000
36.198801	-0.756246	55.018000
36.229466	-0.716111	55.064000
36.260326	-0.785256	55.111000
36.377549	-0.840105	55.158000
36.408763	-0.862159	55.333000
36.439059	-0.847762	55.379000
36.469109	-0.771123	55.425000
36.499578	-0.808123	55.472000
36.531322	-0.849572	55.518000
36.562782	-0.835175	55.565000
36.593608	-0.761697	55.611000
36.624749	-0.792013	55.657000
36.655621	-0.825908	55.703000
36.686551	-0.803755	55.749000
36.716897	-0.703892	55.796000
36.746609	-0.706421	55.842000
36.777938	-0.719030	55.889000
36.881338	-0.609896	55.935000
36.912660	-0.631062	56.090000
36.943900	-0.561444	56.136000
36.974661	-0.485743	56.182000
37.005990	-0.493165	56.229000
37.111066	-0.485552	56.275000
37.141600	-0.424681	56.433000
37.172368	-0.426344	56.480000
37.202833	-0.345279	56.527000
37.234162	-0.358248	56.573000
37.265868	-0.404264	56.619000
37.296598	-0.407366	56.665000
37.327001	-0.333548	56.711000
37.357808	-0.352972	56.757000
37.388446	-0.410410	56.803000
37.418216	-0.425062	56.848000
37.449322	-0.360576	56.896000
37.480686	-0.388967	56.942000
37.512303	-0.443196	56.988000
37.615611	-0.416166	57.035000
37.646879	-0.469498	57.189000
37.677966	-0.451575	57.236000
37.707663	-0.412760	57.282000
37.738831	-0.484566	57.329000
37.844232	-0.534405	57.375000
37.875473	-0.548997	57.534000
37.906468	-0.576950	57.580000
37.936991	-0.524226	57.626000
37.968850	-0.548094	57.672000
37.999707	-0.621210	57.718000
38.029938	-0.646830	57.765000
38.060195	-0.577087	57.811000
38.090944	-0.579356	57.857000
38.121951	-0.629333	57.904000
38.152554	-0.633353	57.950000
38.184229	-0.542984	57.997000
38.215597	-0.534203	58.043000
38.246584	-0.582146	58.089000
38.349089	-0.577490	58.135000
38.379581	-0.634337	58.290000
38.410077	-0.638305	58.336000
38.441095	-0.582834	58.382000
38.471794	-0.631613	58.428000
38.578060	-0.672745	58.474000
38.609731	-0.636077	58.633000
38.639685	-0.668196	58.680000
38.671272	-0.608369	58.726000
38.701933	-0.560056	58.772000
38.732163	-0.601328	58.818000
38.762793	-0.628325	58.865000
38.794365	-0.579165	58.912000
38.825026	-0.553757	58.958000
38.856217	-0.611337	59.004000
38.887050	-0.640626	59.050000
38.918303	-0.587828	59.096000
38.948975	-0.550174	59.143000
38.979667	-0.600416	59.189000
39.453094	-0.622664	59.236000
39.484170	-0.569918	59.946000
39.514800	-0.559697	59.992000
39.546356	-0.467274	60.038000
39.576080	-0.452081	60.084000
39.606725	-0.484608	60.130000
39.637198	-0.478374	60.177000
39.668154	-0.387119	60.223000
39.698661	-0.364226	60.269000
39.805116	-0.342741	60.315000
39.836034	-0.397294	60.472000
39.866729	-0.450663	60.519000
39.897356	-0.440158	60.564000
39.927379	-0.390355	60.611000
40.044694	-0.445014	60.658000
40.075608	-0.437474	60.834000
40.106165	-0.476263	60.880000
40.137237	-0.465803	60.926000
40.167813	-0.390196	60.972000
40.199185	-0.418927	61.018000
40.230138	-0.469361	61.064000
40.261517	-0.472191	61.110000
40.291302	-0.400024	61.157000
40.322896	-0.423518	61.204000
40.352389	-0.470315	61.250000
40.383534	-0.486686	61.296000
40.413818	-0.425920	61.342000
40.445509	-0.465351	61.388000
40.549239	-0.495383	61.434000
40.579274	-0.566090	61.589000
40.609831	-0.624010	61.635000
40.640150	-0.614149	61.681000
40.671314	-0.559324	61.727000
40.777887	-0.604339	61.773000
40.809059	-0.525658	61.933000
40.839620	-0.569346	61.978000
40.870350	-0.574352	62.024000
40.901145	-0.493262	62.070000
40.930942	-0.477929	62.116000
40.961103	-0.520631	62.162000
40.991591	-0.526453	62.208000
41.023074	-0.445923	62.253000
41.053904	-0.441545	62.300000
41.085245	-0.506379	62.347000
41.115587	-0.525361	62.393000
41.147227	-0.446805	62.439000
41.178211	-0.419784	62.486000
41.279978	-0.382339	62.532000
41.312091	-0.385425	62.687000
41.342610	-0.400524	62.733000
41.373421	-0.372860	62.780000
41.404723	-0.279672	62.826000
41.512422	-0.284496	62.872000
41.543640	-0.224427	63.034000
41.574984	-0.280541	63.080000
41.604750	-0.322250	63.126000
41.636225	-0.281861	63.173000
41.666929	-0.262936	63.219000
41.696859	-0.340531	63.265000
41.727858	-0.395041	63.311000
41.759072	-0.360156	63.358000
41.790417	-0.330102	63.403000
41.821631	-0.392417	63.451000
41.852346	-0.426716	63.497000
41.883917	-0.376148	63.543000
41.914136	-0.344510	63.589000
42.016157	-0.377513	63.636000
42.047329	-0.401686	63.790000
42.078385	-0.465010	63.836000
42.109653	-0.482934	63.883000
42.141297	-0.421817	63.929000
42.246661	-0.451108	63.976000
42.277176	-0.429368	64.134000
42.307652	-0.473867	64.180000
42.338228	-0.509422	64.227000
42.369362	-0.474652	64.273000
42.400115	-0.429305	64.320000
42.431248	-0.479148	64.366000
42.462404	-0.506771	64.412000
42.493649	-0.453003	64.458000
42.524137	-0.398405	64.504000
42.554675	-0.437463	64.551000
42.585628	-0.457032	64.597000
42.616469	-0.399147	64.643000
42.647157	-0.351587	64.689000
43.121872	-0.345291	64.736000
43.151714	-0.457339	65.446000
43.182206	-0.532995	65.492000
43.212686	-0.564543	65.538000
43.243443	-0.510525	65.585000
43.273443	-0.538330	65.630000
43.305867	-0.598635	65.676000
43.336417	-0.612473	65.723000
43.367642	-0.539167	65.769000
43.472983	-0.594700	65.816000
43.502694	-0.530830	65.973000
43.534373	-0.583470	66.019000
43.564496	-0.634221	66.066000
43.595557	-0.621592	66.112000
43.712537	-0.581912	66.158000
43.742933	-0.665864	66.334000
43.775015	-0.719921	66.379000
43.805461	-0.779277	66.426000
43.836352	-0.779624	66.472000
43.866160	-0.723252	66.517000
43.896886	-0.765703	66.564000
43.927106	-0.814427	66.610000
43.958216	-0.806538	66.656000
43.989226	-0.734445	66.702000
44.020594	-0.771121	66.749000
44.051090	-0.810904	66.795000
44.082281	-0.786640	66.841000
44.112576	-0.712271	66.887000
44.213560	-0.708716	66.933000
44.245838	-0.663477	67.087000
44.276484	-0.713381	67.133000
44.307579	-0.741395	67.178000
44.337364	-0.686746	67.225000
44.445470	-0.647562	67.271000
44.477752	-0.631920	67.433000
44.508205	-0.656532	67.479000
44.539124	-0.697197	67.525000
44.568367	-0.688458	67.572000
44.599193	-0.609121	67.618000
44.629873	-0.624645	67.664000
44.661429	-0.653287	67.710000
44.691337	-0.626883	67.756000
44.723400	-0.522485	67.803000
44.754164	-0.522708	67.849000
44.785363	-0.551361	67.896000
44.815647	-0.537978	67.942000
44.847126	-0.458641	67.988000
44.949681	-0.441365	68.035000
44.980957	-0.380180	68.189000
45.011844	-0.416505	68.235000
45.042240	-0.446708	68.282000
45.074987	-0.403578	68.328000
45.181499	-0.346179	68.375000
45.211626	-0.307017	68.533000
45.242117	-0.334522	68.580000
45.272410	-0.377587	68.626000
45.303766	-0.369198	68.673000
45.334392	-0.306225	68.719000
45.365706	-0.346922	68.765000
45.396298	-0.400554	68.812000
45.428364	-0.393053	68.858000
45.459317	-0.317532	68.905000
45.490804	-0.353775	68.951000
45.520570	-0.405039	68.998000
45.551365	-0.409163	69.044000
45.581607	-0.365400	69.090000
45.685272	-0.486019	69.137000
45.716655	-0.458088	69.291000
45.746671	-0.517078	69.337000
45.778419	-0.547479	69.383000
45.808377	-0.489252	69.429000
45.913579	-0.448800	69.476000
45.944654	-0.368353	69.634000
45.975257	-0.353987	69.680000
46.006176	-0.384239	69.727000
46.037613	-0.386093	69.773000
46.069038	-0.329824	69.819000
46.099910	-0.366668	69.866000
46.131147	-0.401442	69.912000
46.161770	-0.374496	69.958000
46.191508	-0.275355	70.005000
46.222181	-0.283045	70.051000
46.253279	-0.304215	70.097000
46.284301	-0.265622	70.143000
46.315638	-0.164599	70.190000
46.788920	-0.094982	70.236000
46.819619	-0.157431	70.946000
46.850069	-0.213558	70.991000
46.881221	-0.254497	71.038000
46.911859	-0.211862	71.083000
46.942989	-0.171100	71.130000
46.973976	-0.212805	71.177000
47.005136	-0.226039	71.223000
47.035486	-0.163730	71.269000
47.139670	-0.204078	71.316000
47.170619	-0.134070	71.472000
47.201218	-0.158767	71.518000
47.231956	-0.213305	71.563000
47.262939	-0.223845	71.610000
47.381299	-0.160369	71.656000
47.412106	-0.222753	71.834000
47.443020	-0.253924	71.880000
47.473393	-0.330059	71.926000
47.503009	-0.364810	71.972000
47.533866	-0.318855	72.018000
47.565222	-0.348739	72.064000
47.596763	-0.420568	72.110000
47.627485	-0.443480	72.157000
47.657850	-0.384961	72.203000
47.688926	-0.407005	72.248000
47.720409	-0.474567	72.295000
47.750270	-0.496337	72.342000
47.779805	-0.436456	72.387000
47.884181	-0.529516	72.434000
47.914347	-0.477524	72.588000
47.946164	-0.530227	72.634000
47.976875	-0.573301	72.681000
48.007789	-0.548349	72.726000
48.115369	-0.495329	72.773000
48.144689	-0.513377	72.934000
48.176372	-0.520259	72.980000
48.206452	-0.577023	73.027000
48.237870	-0.590013	73.073000
48.268358	-0.523239	73.119000
48.299714	-0.535911	73.165000
48.330398	-0.592091	73.211000
48.361343	-0.602611	73.257000
48.392411	-0.532846	73.304000
48.423994	-0.552528	73.350000
48.454175	-0.608708	73.397000
48.484063	-0.610787	73.443000
48.515731	-0.542220	73.490000
48.619039	-0.560098	73.536000
48.650879	-0.507226	73.691000
48.681225	-0.554086	73.737000
48.712619	-0.585208	73.783000
48.742335	-0.543450	73.830000
48.846880	-0.501192	73.876000
48.878374	-0.516198	74.033000
48.909020	-0.536208	74.080000
48.940918	-0.590012	74.127000
48.971133	-0.595866	74.173000
49.003384	-0.533482	74.220000
49.034037	-0.567458	74.265000
49.065298	-0.625176	74.312000
49.095317	-0.627826	74.358000
49.126285	-0.557701	74.405000
49.156615	-0.579599	74.451000
49.187841	-0.629342	74.498000
49.218502	-0.621994	74.543000
49.249896	-0.537353	74.590000
49.353669	-0.537067	74.636000
49.384422	-0.496941	74.791000
49.414223	-0.557522	74.837000
49.443681	-0.598156	74.883000
49.475963	-0.548317	74.929000
49.581760	-0.501692	74.976000
49.612267	-0.428480	75.134000
49.643850	-0.437017	75.180000
49.674223	-0.452982	75.226000
49.706298	-0.412127	75.273000
49.737074	-0.338808	75.319000
49.767477	-0.382369	75.366000
49.797028	-0.437927	75.412000
49.828926	-0.434065	75.459000
49.859851	-0.359656	75.505000
49.890581	-0.370128	75.551000
49.921219	-0.380042	75.596000
49.952395	-0.336774	75.643000
49.983789	-0.244235	75.689000
50.456595	-0.174111	75.736000
50.487525	-0.273704	76.446000
50.518623	-0.340860	76.493000
50.549857	-0.373272	76.539000
50.581228	-0.321848	76.586000
50.612089	-0.341428	76.631000
50.641851	-0.402171	76.678000
50.672454	-0.419352	76.724000
50.702715	-0.357275	76.770000
50.808482	-0.375399	76.816000
50.839657	-0.312541	76.974000
50.870018	-0.362345	77.020000
50.901286	-0.411282	77.066000
50.932838	-0.395488	77.113000
51.049358	-0.362504	77.158000
51.079473	-0.293984	77.334000
51.109066	-0.301984	77.380000
51.140115	-0.309071	77.426000
51.171291	-0.256474	77.471000
51.202290	-0.164516	77.519000
51.233411	-0.179870	77.565000
51.264568	-0.191291	77.611000
51.295471	-0.148875	77.657000
51.325824	-0.085059	77.703000
51.355544	-0.131972	77.749000
51.386808	-0.163306	77.795000
51.417492	-0.120932	77.842000
51.449032	-0.051900	77.888000
51.552647	-0.057339	77.935000
51.582882	-0.035235	78.089000
51.613835	-0.077051	78.135000
51.644519	-0.076288	78.182000
51.674676	0.012814	78.228000
51.781541	0.036595	78.274000
51.812083	0.095276	78.434000
51.842978	0.048856	78.479000
51.874012	0.014370	78.525000
51.904319	0.046465	78.571000
51.934838	0.082773	78.616000
51.965061	0.019066	78.662000
51.995403	-0.025171	78.707000
52.025280	-0.004194	78.754000
52.055837	0.031614	78.799000
52.086920	-0.030698	78.844000
52.117954	-0.069776	78.891000
52.148296	-0.033722	78.936000
52.177401	0.017648	78.981000
52.281277	-0.008775	79.028000
52.311562	0.007526	79.182000
52.342745	-0.038147	79.228000
52.373525	-0.047138	79.273000
52.403110	0.017638	79.319000
52.515615	0.017882	79.365000
52.546399	-0.006998	79.533000
52.577436	-0.056269	79.580000
52.607978	-0.090753	79.625000
52.638512	-0.045537	79.672000
52.669054	0.025182	79.718000
52.700068	0.006575	79.765000
52.730179	0.004279	79.811000
52.761401	0.080158	79.857000
52.792865	0.133708	79.903000
52.824133	0.085818	79.950000
52.854966	0.065645	79.996000
52.885858	0.131052	80.042000
52.917118	0.161634	80.089000
53.019235	0.139769	80.135000
53.050214	0.131791	80.290000
53.080779	0.108456	80.336000
53.112082	0.129856	80.382000
53.142973	0.205079	80.428000
53.248924	0.187891	80.474000
53.280346	0.230932	80.634000
53.310572	0.167865	80.679000
53.341337	0.126588	80.725000
53.370680	0.170458	80.772000
53.402236	0.182535	80.818000
53.433004	0.121986	80.864000
53.464368	0.093867	80.910000
53.495087	0.147639	80.956000
53.526477	0.147777	81.003000
53.557027	0.068837	81.049000
53.587822	0.038055	81.095000
53.617718	0.103493	81.141000
53.648352	0.105693	81.187000
54.124527	0.140838	81.233000
54.155956	0.319000	81.946000
54.185968	0.283000	81.993000
54.217958	0.328629	82.040000
54.247896	0.348373	82.086000
54.278515	0.287091	82.132000
54.308619	0.258705	82.179000
54.340536	0.320389	82.224000
54.371400	0.348055	82.271000
54.475922	0.373071	82.316000
54.507236	0.346760	82.474000
54.537866	0.304494	82.520000
54.569257	0.317452	82.567000
54.599349	0.387397	82.613000
54.715089	0.356962	82.660000
54.746537	0.417575	82.833000
54.776710	0.381075	82.881000
54.808819	0.388732	82.927000
54.839818	0.457474	82.974000
54.871447	0.431218	83.020000
54.901901	0.394910	83.066000
54.933410	0.426564	83.113000
54.963457	0.502719	83.159000
54.993725	0.476272	83.205000
55.023691	0.441111	83.251000
55.055620	0.475045	83.297000
55.086822	0.563897	83.344000
55.118059	0.546221	83.390000
55.221386	0.660918	83.436000
55.250783	0.628502	83.591000
55.282078	0.625691	83.637000
55.312931	0.694872	83.683000
55.344014	0.704331	83.730000
55.449639	0.641736	83.777000
55.479812	0.608103	83.934000
55.511790	0.547110	83.980000
55.542332	0.552396	84.027000
55.573565	0.586650	84.073000
55.602985	0.524461	84.119000
55.633907	0.471123	84.165000
55.664668	0.480189	84.211000
55.696005	0.506858	84.257000
55.726243	0.426830	84.304000
55.758064	0.355288	84.350000
55.789213	0.359317	84.397000
55.820120	0.382338	84.443000
55.850523	0.320283	84.489000
55.953170	0.373706	84.535000
55.983358	0.318840	84.690000
56.014991	0.302914	84.736000
56.046363	0.364852	84.783000
56.077408	0.349836	84.830000
56.183439	0.280475	84.876000
56.213497	0.277802	85.033000
56.244657	0.241017	85.080000
56.274707	0.274580	85.126000
56.305218	0.331523	85.172000
56.336164	0.300697	85.219000
56.367827	0.291163	85.265000
56.398419	0.361427	85.311000
56.429460	0.427074	85.356000
56.460785	0.414929	85.403000
56.491846	0.428333	85.449000
56.522875	0.524534	85.496000
56.552760	0.587750	85.543000
56.583544	0.564966	85.589000
56.686460	0.690205	85.634000
56.718335	0.650949	85.790000
56.749184	0.647280	85.836000
56.780029	0.692676	85.882000
56.810440	0.639932	85.929000
56.916706	0.582441	85.975000
56.946261	0.560078	86.133000
56.977590	0.523950	86.180000
57.008162	0.590883	86.226000
57.038781	0.654269	86.272000
57.070010	0.630962	86.318000
57.101336	0.620654	86.364000
57.131928	0.699984	86.410000
57.162508	0.738476	86.456000
57.193211	0.691966	86.502000
57.224064	0.673249	86.549000
57.254859	0.740119	86.596000
57.285163	0.755188	86.642000
57.316507	0.696346	86.687000
57.792029	0.766620	86.733000
57.822175	0.702294	87.447000
57.853293	0.727618	87.493000
57.883320	0.732793	87.539000
57.915229	0.643538	87.585000
57.946385	0.574812	87.632000
57.977430	0.592627	87.678000
58.008429	0.592616	87.725000
58.040024	0.517499	87.772000
58.143708	0.599725	87.818000
58.173981	0.594501	87.974000
58.204446	0.648087	88.019000
58.234400	0.753831	88.066000
58.266294	0.739908	88.112000
58.383490	0.707046	88.159000
58.414024	0.756620	88.334000
58.445265	0.762824	88.380000
58.476290	0.829006	88.427000
58.507520	0.801921	88.472000
58.538200	0.759919	88.520000
58.568281	0.784805	88.566000
58.597739	0.875574	88.612000
58.629825	0.853116	88.658000
58.660620	0.792102	88.704000
58.691393	0.775347	88.750000
58.722618	0.812366	88.797000
58.753632	0.757543	88.842000
58.784128	0.716420	88.889000
58.886391	0.802885	88.934000
58.917551	0.784392	89.088000
58.947966	0.844481	89.135000
58.979699	0.853750	89.182000
59.010644	0.800924	89.228000
59.117383	0.791517	89.275000
59.148750	0.796216	89.434000
59.177717	0.817499	89.481000
59.209165	0.841902	89.527000
59.238512	0.770607	89.572000
59.270983	0.714033	89.619000
59.301159	0.736928	89.665000
59.333134	0.778347	89.712000
59.364260	0.722188	89.758000
59.395282	0.684108	89.804000
59.425823	0.735358	89.851000
59.457091	0.776820	89.897000
59.487867	0.726715	89.944000
59.517852	0.697745	89.990000
59.622028	0.658764	90.036000
59.652339	0.647090	90.191000
59.683484	0.720163	90.238000
59.714787	0.705550	90.284000
59.745897	0.664608	90.330000
59.850918	0.678117	90.377000
59.880530	0.685721	90.534000
59.911787	0.753694	90.581000
59.942117	0.770067	90.626000
59.974023	0.710290	90.673000
60.003877	0.687428	90.719000
60.035575	0.756059	90.764000
60.066001	0.776852	90.811000
60.094065	0.743249	90.857000
60.123301	0.748721	90.903000
60.154722	0.820509	90.950000
60.185606	0.815822	90.996000
60.216324	0.778264	91.042000
60.247123	0.789397	91.088000
60.350316	0.826478	91.133000
60.382318	0.871828	91.289000
60.412575	0.929706	91.335000
60.443128	0.885699	91.382000
60.473451	0.857951	91.428000
60.580090	0.908443	91.474000
60.610889	0.878863	91.633000
60.641846	0.942293	91.680000
60.673182	0.911722	91.726000
60.704058	0.852525	91.772000
60.734666	0.845540	91.818000
60.765065	0.893091	91.864000
60.795680	0.831944	91.910000
60.826026	0.761456	91.957000
60.857363	0.755518	92.003000
60.888784	0.790226	92.050000
60.920183	0.729687	92.096000
60.950790	0.692178	92.143000
60.982023	0.739421	92.189000
61.455105	0.793861	92.236000
61.486611	0.688594	92.947000
61.517218	0.659826	92.993000
61.548747	0.633167	93.039000
61.579757	0.676082	93.086000
61.611425	0.745719	93.132000
61.641978	0.703164	93.178000
61.671874	0.662688	93.225000
61.702689	0.699962	93.271000
61.807203	0.707131	93.317000
61.838413	0.767436	93.474000
61.869366	0.735433	93.520000
61.900645	0.653760	93.567000
61.931644	0.626094	93.613000
62.047976	0.686198	93.659000
62.079301	0.653367	93.834000
62.109474	0.640568	93.880000
62.139082	0.586122	93.927000
62.170315	0.580673	93.973000
62.201679	0.649740	94.019000
62.231998	0.640802	94.064000
62.262755	0.598773	94.111000
62.293996	0.607438	94.157000
62.325990	0.666782	94.204000
62.357127	0.627875	94.250000
62.386455	0.576633	94.297000
62.417677	0.586218	94.343000
62.447815	0.630866	94.389000
62.552222	0.511986	94.435000
62.582890	0.502316	94.590000
62.613751	0.419223	94.637000
62.645099	0.377916	94.683000
62.676482	0.440422	94.729000
62.781093	0.448864	94.776000
62.811615	0.493401	94.934000
62.842157	0.447088	94.980000
62.873425	0.408836	95.026000
62.904742	0.448728	95.073000
62.935399	0.491011	95.119000
62.965945	0.439144	95.165000
62.997559	0.401406	95.212000
63.028734	0.443661	95.258000
63.059310	0.476022	95.305000
63.088573	0.417034	95.351000
63.119971	0.377863	95.397000
63.150594	0.420641	95.443000
63.181531	0.439311	95.489000
63.285815	0.421729	95.535000
63.316203	0.418259	95.689000
63.345277	0.395809	95.735000
63.376195	0.433187	95.780000
63.406503	0.535968	95.827000
63.514336	0.544665	95.872000
63.545543	0.611194	96.034000
63.576042	0.562606	96.081000
63.608032	0.548092	96.127000
63.638612	0.610664	96.173000
63.669823	0.606126	96.219000
63.699911	0.552725	96.266000
63.731544	0.554840	96.312000
63.761114	0.634194	96.358000
63.792274	0.630145	96.405000
63.823472	0.593602	96.451000
63.854529	0.612758	96.498000
63.886139	0.697703	96.544000
63.916216	0.689049	96.590000
64.020649	0.765431	96.636000
64.049232	0.723207	96.791000
64.080930	0.705953	96.837000
64.111671	0.775315	96.884000
64.142974	0.806141	96.930000
64.248967	0.753225	96.976000
64.279224	0.763798	97.134000
64.310435	0.712918	97.180000
64.341637	0.720512	97.226000
64.372071	0.765071	97.273000
64.400746	0.709654	97.319000
64.432525	0.660376	97.365000
64.463458	0.680397	97.410000
64.494730	0.731964	97.457000
64.524964	0.684204	97.502000
64.556566	0.650440	97.550000
64.587600	0.694775	97.596000
64.618295	0.745782	97.642000
64.648122	0.705401	97.688000
65.123490	0.919888	97.734000
65.154762	1.018808	98.447000
65.186126	1.051774	98.492000
65.216391	1.122895	98.538000
65.246740	1.091890	98.585000
65.277036	1.061954	98.631000
65.308193	1.096958	98.678000
65.339126	1.139682	98.724000
65.370751	1.091105	98.771000
65.475008	1.143244	98.817000
65.506587	1.094667	98.974000
65.537190	1.100553	99.020000
65.567579	1.165588	99.066000
65.597498	1.134209	99.112000
65.714555	1.069418	99.158000
65.745550	1.018470	99.334000
65.777268	1.008790	99.381000
65.807932	1.065060	99.427000
65.839604	1.018395	99.474000
65.869976	0.954183	99.520000
65.901379	0.954087	99.567000
65.932497	1.006345	99.613000
65.962885	0.966709	99.659000
65.993818	0.923971	99.705000
66.023184	0.944779	99.751000
66.054379	0.993589	99.797000
66.085620	0.940262	99.843000
66.117107	0.886288	99.890000
66.219919	0.829038	99.936000
66.251514	0.794064	100.091000
66.281326	0.838888	100.136000
66.311760	0.817478	100.183000
66.342747	0.750767	100.230000
66.448441	0.728637	100.276000
66.479966	0.690991	100.434000
66.510792	0.742369	100.481000
66.541526	0.769600	100.527000
66.573212	0.713960	100.573000
66.604361	0.694204	100.620000
66.634872	0.766907	100.666000
66.664369	0.785655	100.712000
66.695203	0.730545	100.759000
66.726198	0.713822	100.805000
66.757124	0.784256	100.850000
66.787366	0.808040	100.897000
66.819575	0.782166	100.943000
66.850362	0.774637	100.989000
66.953482	0.733599	101.036000
66.983355	0.779716	101.191000
67.014204	0.827408	101.236000
67.045653	0.778603	101.283000
67.076894	0.761551	101.330000
67.182879	0.834042	101.376000
67.213221	0.910293	101.533000
67.243671	1.001006	101.580000
67.274320	0.995135	101.625000
67.304631	0.957242	101.672000
67.334758	0.967077	101.718000
67.365569	1.023708	101.764000
67.397009	0.975244	101.810000
67.427989	0.923443	101.857000
67.458807	0.941247	101.903000
67.489687	1.007078	101.949000
67.521259	0.962700	101.995000
67.551654	0.908949	102.042000
67.582089	0.921158	102.087000
67.684570	0.841850	102.133000
67.716764	0.891379	102.288000
67.747429	0.898922	102.334000
67.778355	0.848631	102.381000
67.808651	0.838430	102.426000
67.916365	0.915834	102.473000
67.947360	0.925503	102.634000
67.976941	0.976811	102.680000
68.007906	0.947466	102.727000
68.039054	0.944683	102.773000
68.070387	1.020914	102.819000
68.101221	1.066852	102.866000
68.132478	1.044828	102.912000
68.163411	1.062028	102.959000
68.193822	1.164283	103.005000
68.225493	1.208545	103.051000
68.255997	1.194050	103.097000
68.287023	1.216466	103.144000
68.316512	1.307160	103.190000
68.790896	1.455099	103.237000
68.823020	1.621924	103.947000
68.852456	1.600822	103.992000
68.883259	1.615148	104.039000
68.913155	1.696779	104.085000
68.945441	1.705296	104.132000
68.975622	1.663397	104.178000
69.007185	1.663163	104.224000
69.037366	1.735782	104.270000
69.142360	1.783641	104.317000
69.174177	1.824980	104.474000
69.204158	1.779905	104.520000
69.235199	1.768355	104.567000
69.265119	1.853415	104.613000
69.382046	1.866524	104.659000
69.414016	1.886750	104.833000
69.444451	1.833657	104.880000
69.475553	1.813143	104.926000
69.505703	1.866007	104.972000
69.537651	1.858644	105.019000
69.567901	1.793670	105.066000
69.598527	1.775390	105.112000
69.628700	1.827159	105.158000
69.660125	1.801879	105.205000
69.691090	1.747344	105.250000
69.722945	1.737020	105.297000
69.752903	1.768249	105.343000
69.783898	1.708564	105.389000
69.886511	1.724620	105.435000
69.916976	1.674340	105.590000
69.948186	1.646791	105.637000
69.979035	1.699668	105.683000
70.010860	1.703191	105.730000
70.117022	1.633971	105.776000
70.147356	1.591723	105.934000
70.179097	1.536847	105.981000
70.209024	1.562287	106.027000
70.239980	1.606017	106.073000
70.270092	1.556825	106.119000
70.301125	1.512394	106.166000
70.331483	1.543251	106.212000
70.363377	1.566136	106.258000
70.394318	1.495533	106.305000
70.425705	1.446067	106.351000
70.456393	1.482490	106.398000
70.487441	1.489553	106.444000
70.518675	1.421176	106.490000
70.620573	1.446731	106.537000
70.652367	1.392516	106.692000
70.683200	1.398313	106.738000
70.713942	1.443772	106.785000
70.745567	1.405763	106.831000
70.850101	1.372237	106.877000
70.881610	1.431712	107.034000
70.911922	1.428412	107.081000
70.941649	1.507920	107.128000
70.973105	1.508004	107.173000
71.004023	1.466527	107.220000
71.035134	1.477814	107.266000
71.066643	1.562360	107.313000
71.097884	1.565563	107.359000
71.128818	1.551385	107.406000
71.158714	1.597820	107.452000
71.189932	1.684233	107.498000
71.219682	1.674690	107.544000
71.250985	1.650343	107.590000
71.355050	1.695592	107.637000
71.386383	1.670312	107.792000
71.416609	1.727988	107.837000
71.447259	1.724349	107.883000
71.477078	1.654447	107.928000
71.583440	1.616389	107.974000
71.613713	1.522003	108.134000
71.644700	1.554079	108.180000
71.675419	1.609443	108.227000
71.707505	1.573643	108.273000
71.738446	1.537579	108.320000
71.768927	1.583336	108.365000
71.800091	1.628415	108.412000
71.830540	1.593027	108.458000
71.860713	1.583803	108.504000
71.890825	1.666122	108.551000
71.922465	1.717639	108.597000
71.953422	1.701062	108.643000
71.984017	1.720826	108.688000
72.458670	2.006608	108.734000
72.488275	2.353415	109.447000
72.520107	2.377477	109.492000
72.550741	2.345133	109.539000
72.582497	2.354041	109.585000
72.612931	2.427517	109.632000
72.644495	2.415183	109.678000
72.674645	2.378335	109.724000
72.704372	2.402087	109.769000
72.809874	2.509561	109.816000
72.840116	2.614018	109.974000
72.871533	2.673809	110.020000
72.902505	2.658636	110.066000
72.934184	2.685456	110.113000
73.050857	2.796020	110.158000
73.081691	2.917054	110.335000
73.113462	2.943204	110.381000
73.143528	2.897819	110.427000
73.173877	2.894288	110.473000
73.203820	2.973871	110.519000
73.234530	2.984435	110.565000
73.265779	2.965196	110.612000
73.296820	2.981633	110.658000
73.327539	3.079486	110.704000
73.359356	3.099809	110.750000
73.390090	3.070178	110.797000
73.420078	3.087503	110.842000
73.450428	3.157124	110.889000
73.553501	3.175359	110.934000
73.585334	3.235293	111.089000
73.616106	3.230352	111.136000
73.647286	3.259969	111.182000
73.678481	3.360996	111.229000
73.783414	3.383284	111.275000
73.815208	3.463996	111.435000
73.845542	3.442945	111.481000
73.876368	3.434992	111.527000
73.906526	3.519935	111.574000
73.937936	3.568904	111.619000
73.968892	3.537096	111.666000
73.999518	3.528749	111.711000
74.030291	3.610574	111.758000
74.062123	3.645947	111.804000
74.092657	3.627933	111.850000
74.122615	3.646319	111.897000
74.152296	3.730717	111.943000
74.183845	3.735742	111.989000
74.288163	3.816058	112.034000
74.318843	3.798794	112.190000
74.349976	3.775581	112.236000
74.378597	3.838963	112.282000
74.410929	3.892122	112.329000
74.517360	3.841265	112.375000
74.548194	3.844381	112.535000
74.578720	3.797522	112.581000
74.609185	3.831189	112.627000
74.640818	3.904640	112.673000
74.671483	3.883239	112.719000
74.702339	3.849637	112.765000
74.731806	3.902946	112.811000
74.763677	3.979861	112.857000
74.793949	3.962969	112.904000
74.824783	3.946362	112.949000
74.855817	4.016495	112.997000
74.887034	4.069750	113.043000
74.918498	4.034238	113.089000
75.021564	4.150034	113.136000
75.051998	4.135007	113.290000
75.082140	4.197041	113.336000
75.114296	4.316727	113.383000
75.145391	4.339313	113.429000
75.251576	4.351582	113.475000
75.282479	4.543245	113.635000
75.313720	4.571492	113.680000
75.344769	4.666019	113.727000
75.375687	4.678564	113.773000
75.407128	4.671766	113.820000
75.437108	4.738780	113.867000
75.467712	4.858257	113.913000
75.498415	4.867310	113.959000
75.529825	4.852965	114.005000
75.560482	4.928743	114.052000
75.591507	5.056153	114.097000
75.622925	5.088230	114.144000
75.654120	5.114401	114.191000
76.126706	5.660801	114.237000
76.157402	6.282474	114.947000
76.188358	6.368177	114.993000
76.219899	6.354954	115.039000
76.250771	6.357805	115.085000
76.280560	6.473522	115.132000
76.311586	6.563971	115.177000
76.342281	6.576094	115.224000
76.373168	6.586673	115.271000
76.478524	6.741715	115.317000
76.509004	6.859983	115.474000
76.540706	7.016006	115.521000
76.571870	7.069185	115.567000
76.602581	7.109878	115.613000
76.719262	7.254859	115.660000
76.748597	7.641366	115.835000
76.778993	7.791935	115.881000
76.810680	7.846098	115.927000
76.841083	7.892166	115.972000
76.872017	8.010738	116.018000
76.903796	8.076537	116.065000
76.934506	8.050887	116.111000
76.965440	8.047810	116.157000
76.994860	8.140957	116.204000
77.026662	8.180361	116.250000
77.057465	8.169033	116.296000
77.087761	8.196736	116.343000
77.118256	8.309567	116.389000
77.222382	8.485981	116.435000
77.253055	8.638337	116.589000
77.283865	8.660576	116.635000
77.313985	8.668690	116.682000
77.344088	8.774390	116.728000
77.451534	8.856393	116.773000
77.482122	9.018455	116.935000
77.513547	9.038582	116.980000
77.544404	9.049826	117.027000
77.575199	9.174791	117.073000
77.606509	9.311044	117.119000
77.637343	9.325180	117.165000
77.668038	9.321149	117.211000
77.697389	9.430234	117.257000
77.728691	9.524391	117.304000
77.759679	9.509953	117.350000
77.790935	9.509095	117.395000
77.821085	9.626484	117.442000
77.853087	9.699367	117.489000
77.955638	9.889572	117.534000
77.986172	9.906639	117.690000
78.016299	9.877706	117.736000
78.047632	9.943166	117.782000
78.079172	10.045633	117.828000
78.185104	10.059564	117.875000
78.217075	10.323053	118.035000
78.247816	10.338467	118.081000
78.279319	10.422957	118.127000
78.309906	10.600818	118.174000
78.340563	10.678209	118.220000
78.370552	10.701642	118.266000
78.401040	10.812992	118.312000
78.432081	10.982735	118.358000
78.463437	11.046135	118.405000
78.494863	11.071915	118.451000
78.524989	11.195482	118.498000
78.556860	11.329925	118.544000
78.587825	11.366696	118.591000
78.690368	11.667384	118.637000
78.721002	11.700843	118.792000
78.752166	11.807716	118.838000
78.782862	11.969204	118.885000
78.814456	12.019338	118.931000
78.920319	12.051367	118.978000
78.951006	12.414427	119.135000
78.981955	12.460851	119.181000
79.011544	12.637981	119.227000
79.043039	12.735624	119.274000
79.073196	12.762337	119.320000
79.104591	12.844666	119.366000
79.135033	13.007131	119.412000
79.167104	13.061696	119.459000
79.198106	13.063262	119.505000
79.228971	13.169829	119.552000
79.259920	13.335160	119.598000
79.290569	13.384027	119.644000
79.321080	13.388936	119.691000
79.795057	14.046343	119.737000
79.825399	14.901126	120.447000
79.856371	15.069959	120.493000
79.886283	15.115379	120.539000
79.916294	15.169651	120.584000
79.947182	15.359362	120.630000
79.978792	15.507140	120.677000
80.009034	15.555049	120.723000
80.040882	15.643731	120.769000
80.147328	16.061174	120.816000
80.177862	16.251868	120.975000
80.207789	16.432893	121.020000
80.238362	16.506195	121.067000
80.268757	16.591695	121.113000
80.386276	16.815216	121.159000
80.416541	17.320978	121.335000
80.447559	17.478028	121.381000
80.479207	17.549076	121.428000
80.510456	17.690256	121.474000
80.541497	17.975043	121.520000
80.572231	18.174554	121.567000
80.602650	18.278662	121.613000
80.632738	18.466934	121.658000
80.663510	18.768241	121.704000
80.694336	18.953850	121.751000
80.725639	19.061992	121.797000
80.756480	19.275192	121.844000
80.787076	19.551443	121.890000
80.890656	20.084003	121.936000
80.919900	20.294153	122.090000
80.950687	20.386209	122.136000
80.981529	20.511017	122.181000
81.012201	20.781702	122.227000
81.119915	20.955465	122.273000
81.150373	21.546173	122.435000
81.181629	21.655416	122.481000
81.212632	21.765601	122.527000
81.243058	22.020019	122.572000
81.272616	22.221627	122.619000
81.303097	22.302748	122.665000
81.334276	22.424378	122.711000
81.365548	22.681082	122.757000
81.396036	22.832003	122.803000
81.427599	22.874761	122.850000
81.458894	22.999441	122.896000
81.490173	23.229847	122.942000
81.520500	23.324805	122.989000
81.622552	23.769962	123.035000
81.653862	23.827387	123.190000
81.685180	23.926627	123.236000
81.716013	24.173856	123.283000
81.746693	24.324898	123.328000
81.853470	24.367716	123.375000
81.884488	24.936957	123.535000
81.916090	25.030712	123.581000
81.945726	25.279860	123.627000
81.975737	25.453022	123.673000
82.006940	25.502044	123.720000
82.038150	25.615402	123.766000
82.069429	25.857305	123.812000
82.099694	25.991786	123.859000
82.131281	26.027428	123.905000
82.162284	26.161803	123.951000
82.193609	26.400777	123.998000
82.223521	26.511811	124.044000
82.254216	26.554471	124.090000
82.356990	27.148050	124.136000
82.388400	27.265834	124.290000
82.419549	27.534161	124.337000
82.450552	27.697376	124.383000
82.481693	27.730327	124.430000
82.586564	27.847054	124.476000
82.617598	28.338393	124.635000
82.647563	28.594843	124.681000
82.678935	28.812473	124.727000
82.709799	28.893855	124.773000
82.741017	29.005620	124.820000
82.771797	29.266318	124.866000
82.802193	29.433555	124.912000
82.833933	29.489418	124.958000
82.863822	29.615752	125.004000
82.894594	29.890572	125.050000
82.925013	30.050957	125.097000
82.956300	30.105587	125.143000
82.987080	30.285069	125.189000
83.462609	32.027648	125.235000
83.492605	34.004433	125.947000
83.522594	34.133737	125.993000
83.554534	34.206950	126.040000
83.584714	34.497747	126.085000
83.615855	34.816525	126.132000
83.646681	34.926530	126.177000
83.678575	35.003074	126.224000
83.709294	35.304472	126.271000
83.813981	35.917457	126.317000
83.844469	36.280150	126.475000
83.874219	36.494158	126.521000
83.906006	36.591622	126.567000
83.936947	36.831889	126.613000
84.053505	37.158269	126.659000
84.084646	37.874432	126.835000
84.115180	38.016737	126.881000
84.146913	38.105838	126.927000
84.176855	38.384678	126.973000
84.207443	38.704319	127.019000
84.237270	38.842859	127.065000
84.269041	38.946996	127.112000
84.299944	39.258624	127.157000
84.331231	39.555706	127.204000
84.361350	39.678895	127.250000
84.393106	39.831749	127.296000
84.424247	40.183928	127.343000
84.455027	40.441431	127.389000
84.556502	41.162670	127.436000
84.586883	41.314402	127.589000
84.618523	41.411155	127.635000
84.649395	41.718471	127.681000
84.680928	42.048573	127.727000
84.787997	42.195853	127.774000
84.818393	43.075289	127.935000
84.849987	43.193180	127.981000
84.879469	43.499863	128.028000
84.910287	43.893121	128.074000
84.940022	44.089959	128.120000
84.972047	44.230076	128.166000
85.003034	44.579781	128.212000
85.034406	44.934872	128.259000
85.064986	45.099214	128.305000
85.096742	45.275566	128.351000
85.127406	45.672746	128.398000
85.157410	45.997754	128.444000
85.186938	46.152075	128.490000
85.291256	47.181108	128.536000
85.322551	47.355967	128.691000
85.353169	47.744769	128.737000
